Time,P (deg/s),Q (deg/s),R (deg/s),P dot (deg/s^2),Q dot (deg/s^2),R dot (deg/s^2),P_{inertial} (deg/s),Q_{inertial} (deg/s),R_{inertial} (deg/s),q bar (psf),Reynolds Number,V_{Total} (ft/s),V_{Inertial} (ft/s),UBody,VBody,WBody,UdotBody,VdotBody,WdotBody,UdotBody_i,VdotBody_i,WdotBody_i,BodyAccel_X,BodyAccel_Y,BodyAccel_Z,Aero V_{X Body} (ft/s),Aero V_{Y Body} (ft/s),Aero V_{Z Body} (ft/s),V_{X_{inertial}} (ft/s),V_{Y_{inertial}} (ft/s),V_{Z_{inertial}} (ft/s),V_{X_{ecef}} (ft/s),V_{Y_{ecef}} (ft/s),V_{Z_{ecef}} (ft/s),V_{North} (ft/s),V_{East} (ft/s),V_{Down} (ft/s),I_{xx},I_{xy},I_{xz},I_{yx},I_{yy},I_{yz},I_{zx},I_{zy},I_{zz},Mass,Weight,X_{cg},Y_{cg},Z_{cg},Altitude ASL (ft),Altitude AGL (ft),Phi (deg),Theta (deg),Psi (deg),Q(1)_{LOCAL},Q(2)_{LOCAL},Q(3)_{LOCAL},Q(4)_{LOCAL},Q(1)_{ECEF},Q(2)_{ECEF},Q(3)_{ECEF},Q(4)_{ECEF},Q(1)_{ECI},Q(2)_{ECI},Q(3)_{ECI},Q(4)_{ECI},Alpha (deg),Beta (deg),Latitude (deg),Latitude Geodetic (deg),Longitude (deg),X_{ECI} (ft),Y_{ECI} (ft),Z_{ECI} (ft),X_{ECEF} (ft),Y_{ECEF} (ft),Z_{ECEF} (ft),Earth Position Angle (deg),Distance AGL (ft),Terrain Elevation (ft),navigation/actual-heading-rad,systems/mixture-cmd-norm,guidance/wp-heading-rad,guidance/wp-distance,guidance/wp-heading-deg,guidance/selected_target_heading,guidance/angle-to-heading-rad,ap/roll-control-autopilot-on,ap/roll-autopilot-windup-trigger,ap/limited-roll-angle-rad,ap/roll-attitude-selector,ap/limited-roll-angle-error,ap/roll-rate-pid-control,ap/total-limited-roll-rate,ap/roll-rate-saturation,ap/limited-roll-rate-error,ap/roll-command-pid-control,ap/roll-cmd-smoother,ap/roll-cmd-norm-output,ap/roll-command-selector-steering,fcs/attitude/sensor/phi-rad,fcs/wing-leveler-ap-on-off,fcs/roll-ap-error-pid,fcs/roll-ap-autoswitch,fcs/heading-true-degrees,fcs/heading-error,fcs/heading-error-bias-switch,fcs/heading-corrected,fcs/heading-command,fcs/heading-roll-error-lag,fcs/heading-roll-error,fcs/heading-roll-error-switch,fcs/heading-pi-controller,fcs/roll-command-selector,fcs/altitude-error,fcs/alt-error-lag,fcs/hdot-command,fcs/hdot-error,fcs/ap-alt-hold-switch,fcs/windup-trigger,fcs/altitude-hold-pid,fcs/elevator,fcs/pitch-trim-sum,fcs/elevator-control,fcs/elevator-actuator,fcs/roll-trim-sum,fcs/left-aileron-control,fcs/left-aileron-actuator,fcs/right-aileron-control,fcs/right-aileron-actuator,fcs/effective-aileron-pos,fcs/yaw-trim-sum,fcs/rudder-control,fcs/flaps-control,fcs/flap-position-normalizer,IO320 Power Available (engine 0 in ft-lbs/sec),IO320 HP (engine 0),IO320 equivalent ratio (engine 0),IO320 MAP (engine 0 in inHg),Fixed-Pitch 75-inch Two-Blade Propeller Torque (engine 0),Fixed-Pitch 75-inch Two-Blade Propeller PFactor Pitch (engine 0),Fixed-Pitch 75-inch Two-Blade Propeller PFactor Yaw (engine 0),Fixed-Pitch 75-inch Two-Blade Propeller Thrust (engine 0 in lbs),Fixed-Pitch 75-inch Two-Blade Propeller RPM (engine 0),Fuel Tank 0,Fuel Tank 1,/fdm/jsbsim/position/vrp-gc-latitude_deg,/fdm/jsbsim/position/vrp-longitude_deg,/fdm/jsbsim/position/vrp-radius-ft,velocities/pi-deg_sec
0,0,0,0,871.1857357820097,-20602.72238976805,-0.0007620863152679104,0.003328616060457075,0,-0.002525196740169686,1.069610289,934937.272,30,1217.54070066,29.99999999999999,-3.552713678800501e-14,-3.552713678800501e-15,-0.001944355060542913,0.002622015134628996,-1284.127226831477,-542.0859594776845,-867.518836456495,776.1153374767175,-0.001987352480303045,-2.236470796102828e-05,-1316.277042775376,29.99999999999999,-3.552713678800501e-14,-3.552713678800501e-15,1041.827966279854,-629.625768001311,23.90060076798238,9.608377134351477,15.37661769615124,23.90060076798237,29.99999999999998,-3.5527136788005e-14,-5.21804821573823e-15, 2095.734879,-10.78165492, 13.55483334,-10.78165492, 1505.011878, 3.979907608, 13.55483334, 3.979907608, 3150.439301,77.08075536,2480,45.48951612903226,4.22741935483871,35.42701612903226,0,0,-6.361109362927035e-15,-1.590277340731758e-15,3.180554681463518e-15,0.9999999999999999,-5.551115123125784e-17,-1.387778780781446e-17,2.775557561562892e-17,-0.215619721255161,0.7833567225164442,0.4342217218072399,0.3889882741226234,-0.215619721255161,0.7833567225164441,0.43422172180724,0.3889882741226234,-6.7851833204555e-15,-6.7851833204555e-14,37,37.185140505342,-122,-8845203.150217218,-14155284.01767529,12578026.7065266,-8845203.150217218,-14155284.01767529,12578026.7065266,0,0,6.5173225572223e-09,0.003,0.999635333,1.20669979,41976995.3,69.1438981,1.20669979,1.20369979,0,1,0.523,0,1.11022302e-16,3.33066907e-15,0.348,0,3.33066907e-15,8.32667268e-15,2.44902138e-15,0,0,0,-1,-5.55111512e-15,0,3.18078897e-15,-3.18078897e-15,0,-3.18078897e-15,-5.55047674e-17,-1.15394527e-19,1.10906908e-16,0,0,0,0,0,0,-5.21804822e-15,0,0,0,-0,0,0,0.002,0,0,0,0,0,0,0,0,0,0,-825,-1.5,1.29953,29.9213,0,0,0,-0,0,130,130,37.000000662376074,-122.000001209257007,20900154.326977808,0.00332861606045707506
0.12,11.72247038696015,-217.7560895000019,-0.3306737499529165,-24.95499772548335,203.1221168832631,0.5408518188668672,11.72452645901116,-217.7561740546628,-0.3343099184975361,1.937592031,1258317.078,40.3790965537,1218.09933101,18.47215919978947,-0.588122615131136,-35.90132149075457,-98.17024941193726,-6.350734967994294,-27.25618544392009,28.42529793686798,46.48371300618599,-18.45733301904443,25.53716108356838,0.004942874880584456,13.32101770684646,18.47215919978947,-0.588122615131136,-35.90132149075457,1031.603904304627,-646.4762008571802,40.34707603077127,-0.6213382691129841,-1.482846255621252,40.34707603077125,31.1849336614142,0.2588640586071363,-25.64964600979257, 2095.734879,-10.78165492, 13.55483334,-10.78165492, 1505.011878, 3.979907608, 13.55483334, 3.979907608, 3150.439301,77.08075536,2480,45.48951612903226,4.22741935483871,35.42701612903226,2.6689802035689,2.6689662701665,1.71445760706172,-23.33420928958762,359.5822039665796,0.9792339899731505,0.01391448339451857,-0.2022545012033179,-0.000544771626073886,-0.1340069163222807,0.8425273892277644,0.4746540600812039,0.2165485350383815,-0.1340078637790905,0.8425253124805053,0.4746577463606285,0.2165479487200021,-62.773007055165,-0.83454406077972,37.000009992345,37.18515049231,-121.99999992951,-8845079.22824272,-14155361.36769667,12578031.21667565,-8845203.094931629,-14155283.96795282,12578031.21667565,0.00050136889586885,2.6689662701665,3.2586612731049e-09,6.27889339,0.999538922,1.20669972,41976994,69.1438938,1.20669972,1.21099163,0,1,0.523,0,-0.0299229301,-0.174,0.348,0,-0.383100064,-0.95775016,-1.00032744,0,0,0,-1,6.72625018,0,359.608691,-359.608691,360,0.391308707,0.00682833695,8.67434881e-05,-0.0298361866,0,0,0,-2.66896627,-0.111324005,-0.0133559094,-25.6630019,0,0,0,-0,0,0,0.002,0,0,0,0,0,0,0,0,0,0,-825,-1.5,1.29954,29.924,0,0,0,-0,0,130,130,37.0000108822621527,-122.00000112006947,20900156.8771621287,11.7245264590111571
0.24,9.297511333793606,-196.2179257931041,0.0296296071271743,-14.71155468810098,156.167093324861,5.288643613129225,9.297846906352079,-196.2180967552663,0.02546854158436043,1.731275513,1189408.999,38.1702956683,1217.94054196,8.047487093081966,-1.246268863043005,-37.29150354726777,-74.27634975750718,-4.559205709687369,0.5458999788462151,28.68132203064346,47.62668415077509,-23.55938348734996,29.47131834012997,0.03377382186691241,6.52053606803796,8.047487093081966,-1.246268863043005,-37.29150354726777,1035.041480915,-640.8093747030791,37.83704312065322,2.81069204281463,4.174883176147911,37.83704312065324,33.18432100164969,0.1712510289341975,-18.86115012804779, 2095.734879,-10.78165492, 13.55483334,-10.78165492, 1505.011878, 3.979907608, 13.55483334, 3.979907608, 3150.439301,77.08075536,2480,45.48951612903226,4.22741935483871,35.42701612903226,5.3447913341224,5.3447634369222,3.91087365584238,-48.19034955794278,358.050414490003,0.9124419264632008,0.02420318413600932,-0.4084867196491246,-0.001592664465326384,-0.03770678117287878,0.8677538151722346,0.4949422776275406,0.02477209568193183,-0.03770699794059975,0.8677494841278037,0.4949498709213255,0.0247717657263619,-77.822344039466,-1.8710528103575,37.00002061495,37.185161110631,-121.99999983931,-8844955.229980914,-14155438.60646142,12578035.91409813,-8845202.964033216,-14155283.80805991,12578035.91409813,0.0010027377917377,5.3447634369222,3.2586612672507e-09,6.25215862,0.999442272,1.20669964,41976992.6,69.1438893,1.20669964,1.23772632,0,1,0.523,0,-0.0682576219,-0.174,0.348,0,-0.33898225,-0.847455624,-0.856328488,0,0,0,-1,11.8181485,0,358.076789,-358.076789,360,1.92321102,0.0335600323,0.000969181771,-0.0672884402,0,0,0,-5.34476344,-0.490576985,-0.0588430179,-18.9199931,0,0,0,-0,0,0,0.002,0,0,0,0,0,0,0,0,0,0,-825,-1.5,1.29953,29.9261,0,-0,-0,0,0,130,130,37.0000215944797404,-122.00000102820546,20900159.3978742585,9.29784690635207944
0.36,8.032656051564008,-179.0825951245231,0.7984898117869321,-5.990596525145953,129.8504421254206,7.392044685760597,8.031369407913971,-179.0828399378607,0.794522329209526,1.58935759,1139597.623,36.5733633525,1217.76371619,0.4056573258316298,-1.717158373236581,-36.53077765620777,-53.09481648449324,-3.336846348863366,9.985919329394207,28.01943496956434,47.11868036235542,-29.38149766599996,30.77844613039932,0.05535342040809206,0.4938044813955142,0.4056573258316298,-1.717158373236581,-36.53077765620777,1038.451400183645,-635.110607348287,34.66517494813051,6.215214758952361,9.864464416666156,34.66517494813048,34.66395127556314,0.04343135973806533,-11.66273992655418, 2095.734879,-10.78165492, 13.55483334,-10.78165492, 1505.011878, 3.979907608, 13.55483334, 3.979907608, 3150.439301,77.08075536,2480,45.48951612903226,4.22741935483871,35.42701612903226,7.1796999424696,7.1796624614108,9.356314037250478,-70.63337809907841,353.0382252421176,0.814613173757862,0.03144403264496373,-0.5791470357649438,-0.002315365164377396,0.05210044233371111,0.8556287412143508,0.4926433480972746,-0.149958436548546,0.05210241065471911,0.8556222747991373,0.492654578872557,-0.1499577526752774,-89.363783118982,-2.6910872136415,37.000031807986,37.185172307891,-121.9999997939,-8844830.819604091,-14155515.1610328,12578040.27122833,-8845202.421676332,-14155282.96507063,12578040.27122833,0.0015041066876065,7.1796624614108,3.2586612610772e-09,6.16467942,0.999376,1.20669955,41976991.1,69.1438844,1.20669955,1.32520545,0,1,0.523,0,-0.163298486,-0.174,0.348,0,-0.315354385,-0.788385962,-0.792457158,0,0,0,-1,37.4175487,0,353.064231,-353.064231,360,6.93576947,0.121029177,0.00420696922,-0.159091517,0,0,0,-7.17966246,-1.04807249,-0.125693451,-11.7884334,0,0,0,-0,0,0,0.002,0,0,0,0,0,0,0,0,0,0,-825,-1.5,1.29953,29.9274,0,-0,-0,0,0,130,130,37.0000327182019149,-122.000000991298592,20900161.0884234197,8.0313694079139708
0.48,7.697092154554411,-164.3653506893001,1.73873403846377,0.6158590771872255,115.7891180926358,8.225208588704165,7.694488408139077,-164.3656499225134,1.735480230303601,1.514987042,1112605.856,35.7079240009,1217.57897102,-5.042364407714231,-2.079095621737796,-35.28891836017927,-38.02491114946307,-2.780829664628903,9.552052299860858,26.71378182940925,45.47414397082231,-35.51640487210381,31.1813666760577,0.07292289842007765,-4.304035448403775,-5.042364407714231,-2.079095621737796,-35.28891836017927,1041.741056474083,-629.5451573112812,30.77363856395131,9.499618786152434,15.42064359580944,30.7736385639513,35.46338719718592,-0.1155624217271836,-4.170209861033816, 2095.734879,-10.78165492, 13.55483334,-10.78165492, 1505.011878, 3.979907608, 13.55483334, 3.979907608, 3150.439301,77.08075536,2480,45.48951612903226,4.22741935483871,35.42701612903226,8.132128611207,8.1320861559084,117.1577623239496,-86.53014258002011,245.6147553796988,-0.6972679019605909,-0.03637750719241051,0.7158836481730794,0.002179941362622909,0.1328590940375954,0.8158894527122676,0.4729855272230215,-0.3048894112985003,0.1328644299100074,0.8158811748316608,0.4729998060939055,-0.3048870860747064,-98.13183726397,-3.33793740135,37.000043371453,37.185183884093,-121.99999980779,-8844706.006484332,-14155591.03839505,12578044.20492103,-8845201.477215357,-14155281.44597971,12578044.20492103,0.0020054755834754,8.1320861559084,0,4.28978617,0.999341602,1.20669947,41976989.6,69.1438794,1.20669947,-3.08308671,0,1,-0.523,0,-2.0447887,-0.174,0.348,0,-0.308315262,-0.770788155,-0.771158351,0,0,0,-1,1117.77087,0,245.632848,-245.632848,360,30,0.5235,0.0205075172,-2.02428118,0,0,0,-8.13208616,-1.68472261,-0.202029709,-4.37223957,0,0,0,-0,0,0,0.002,0,0,0,0,0,0,0,0,0,0,-825,-1.5,1.29953,29.9283,0,-0,-0,0,0,130,130,37.0000441012551278,-122.000001017549607,20900161.9233649261,7.69448840813907697
0.6,8.053071232142459,-150.9042475499674,2.751296154395224,5.483202435139154,108.8953559703034,8.675805360822295,8.049550401251169,-150.9045774164501,2.74907101588425,1.510352758,1110902.429,35.6532886156,1217.39228292,-9.041565115362658,-2.409346154953079,-34.40351930361966,-28.83102596617527,-2.822621525355647,4.642406685524866,24.91670794985756,42.97822401389382,-41.89340635404574,31.83461439386769,0.09029385658152488,-8.208400652607535,-9.041565115362658,-2.409346154953079,-34.40351930361966,1044.843625585844,-624.229837734051,26.13193939728616,12.59706960934807,20.72661500819811,26.13193939728617,35.47705944365352,-0.3005116303959279,3.527737957350579, 2095.734879,-10.78165492, 13.55483334,-10.78165492, 1505.011878, 3.979907608, 13.55483334, 3.979907608, 3150.439301,77.08075536,2480,45.48951612903226,4.22741935483871,35.42701612903226,8.1723644323647,8.1723217705319,172.5145282727406,-69.23511362250176,190.6811228942239,-0.5694235361360173,-0.03951183269124107,0.8210938603039085,0.000723977181148976,0.203087801262675,0.7566235466519335,0.4402367431605446,-0.4387114810459584,0.2030973986177928,0.7566139157000089,0.4402532952129419,-0.438707038122175,-104.72488226699,-3.8748361166634,37.000055063149,37.185195596853,-121.99999989266,-8844580.809245219,-14155666.26189678,12578047.6269062,-8845200.149257142,-14155279.2741455,12578047.6269062,0.0025068444793442,8.1723217705319,-3.2586612482371e-09,3.33101342,0.999340149,1.20669938,41976988.1,69.1438742,1.20669938,-2.12431404,0,1,-0.523,0,-3.01094653,-0.174,0.348,0,-0.313657317,-0.784143292,-0.781785015,0,0,0,-1,176.260695,0,190.695169,-190.695169,360,30,0.5235,0.0450387846,-2.96590774,0,0,0,-8.17232177,-2.30749477,-0.276710796,3.25102716,0,0,0,-0,0,0,0.002,0,0,0,0,0,0,0,0,0,0,-825,-1.5,1.29952,29.9289,0,-0,-0,0,0,130,130,37.0000555488921137,-122.000001113943753,20900161.8796650507,8.04955040125116916
0.72,8.923429043353998,-138.0064889893124,3.820420566363482,9.180057210914489,106.4477443545659,9.231683379175593,8.919402633431002,-138.0068218585638,3.819355895218032,1.576919303,1135128.57,36.4300244482,1217.20809193,-12.21053725807114,-2.775144151162751,-34.21034983899636,-23.90542250162943,-3.379909632641453,-1.689595657171431,22.64112890797152,39.64867518250036,-48.6058734773618,33.36833345050479,0.1111471880320229,-11.73806536839164,-12.21053725807114,-2.775144151162751,-34.21034983899636,1047.702423511042,-619.262813997488,20.7059899246299,15.45086887958476,25.68422304458515,20.70598992462991,34.60934163669928,-0.5074846714370389,11.36145290354561, 2095.734879,-10.78165492, 13.55483334,-10.78165492, 1505.011878, 3.979907608, 13.55483334, 3.979907608, 3150.439301,77.08075536,2480,45.48951612903226,4.22741935483871,35.42701612903226,7.2800254039466,7.2799873957828,177.0547140288481,-51.93805928902497,186.6789090466602,-0.4383432016795282,-0.04111820011053466,0.8978633577638203,-0.00243350489801432,0.2621997257371064,0.6848278984848584,0.3980231905076648,-0.5512164666429135,0.2622141959686704,0.6848174494977257,0.3980411682081619,-0.5512095832869885,-109.64276511879,-4.3688752906171,37.000066608888,37.185207171666,-122.00000005839,-8844455.25375236,-14155740.86746261,12578050.44523551,-8845198.463652028,-14155276.48550132,12578050.44523551,0.0030082133752131,7.2799873957828,0,3.26116161,0.999372376,1.20669929,41976986.7,69.143869,1.20669929,-2.05446232,0,1,-0.523,0,-3.09018772,-0.174,0.348,0,-0.32818911,-0.820472776,-0.816063708,0,0,0,-1,162.85468,0,186.69266,-186.69266,360,30,0.5235,0.0683736464,-3.02181407,0,0,0,-7.2799874,-2.82985178,-0.3393762,11.0220767,0,0,0,-0,0,0,0.002,0,0,0,0,0,0,0,0,0,0,-825,-1.5,1.29952,29.9296,0,-0,-0,0,0,130,130,37.0000668275269504,-122.000001287286125,20900160.9368317425,8.9194026334310017
0.84,10.19422588799791,-125.2398390916613,4.973840997101427,12.154807897025,106.6476270819451,10.1375418950709,10.19005976385355,-125.2401438256694,4.973923763354183,1.715504752,1183978.164,37.9960996543,1217.03239462,-14.94568628526173,-3.23462570148075,-34.78314601891725,-21.2732540549741,-4.388732787147243,-8.044196712728365,19.78272231136781,35.26471719843343,-55.73534898821647,36.09393902524454,0.1391278804448192,-15.3156763392071,-14.94568628526173,-3.23462570148075,-34.78314601891725,1050.254715227004,-614.7553053327479,14.44981883418265,17.99826210244606,30.18226111295199,14.44981883418265,32.74651052798242,-0.7307698836994161,19.25709252606099, 2095.734879,-10.78165492, 13.55483334,-10.78165492, 1505.011878, 3.979907608, 13.55483334, 3.979907608, 3150.439301,77.08075536,2480,45.48951612903226,4.22741935483871,35.42701612903226,5.443080663681,5.443052256123,179.2095897271824,-36.10469395795594,185.2325386866536,-0.309854754675411,-0.04126337110380727,0.949857726586673,-0.007593711463289179,-0.3103604795811837,-0.606610071608459,-0.3494558456548095,0.6431027955739269,0.3103801756696976,0.6065993685806601,0.3494744240666005,-0.6430932898982153,-113.25231856625,-4.8835272619223,37.000077700621,37.185218300024,-122.000000313,-8844329.372896781,-14155814.90329597,12578052.56314475,-8845196.453277798,-14155273.128258,12578052.56314475,0.0035095822710819,5.443052256123,0,3.23591768,0.999438722,1.2066992,41976985.3,69.143864,1.2066992,-2.02921848,0,1,-0.523,0,-3.12779739,-0.174,0.348,0,-0.349841099,-0.874602747,-0.868565269,0,0,0,-1,161.779229,0,185.246183,-185.246183,360,30,0.5235,0.0905704519,-3.03722694,0,0,0,-5.44305226,-3.17195191,-0.380461577,18.8766309,0,0,0,-0,0,0,0.002,0,0,0,0,0,0,0,0,0,0,-825,-1.5,1.29952,29.9305,0,-0,-0,0,0,130,130,37.0000776595034822,-122.000001543748013,20900159.0783724375,10.1900597638535562
0.96,11.79322446701472,-112.3664263070791,6.259650056709353,14.62241821086613,108.1283406525223,11.47890805910568,11.78920590718592,-112.3666690045965,6.260767454701073,1.92609514,1254578.454,40.2591164039,1216.87630838,-17.41403694370867,-3.839332384243038,-36.09442197605578,-19.17502988825815,-5.804949333903442,-14.0314992979237,16.16253013763341,29.41997482115212,-63.1264906854792,40.10192145033423,0.1784552436515964,-19.1223403246726,-17.41403694370867,-3.839332384243038,-36.09442197605578,1052.420201261745,-610.8568589801844,7.318996782029771,20.1589226344979,34.07119865722503,7.318996782029767,29.75079993936961,-0.9592490199368116,27.10657112038485, 2095.734879,-10.78165492, 13.55483334,-10.78165492, 1505.011878, 3.979907608, 13.55483334, 3.979907608, 3150.439301,77.08075536,2480,45.48951612903226,4.22741935483871,35.42701612903226,2.660040743649,2.6600268534723,-179.1126976602384,-21.78210656246995,184.4794919434862,-0.188494947971012,-0.03983779752555091,0.9811514433791685,-0.01498164319068279,-0.348359369547794,-0.5272302141770667,-0.2971643388767664,0.7157984399305451,0.3483844238201883,0.5272198124627423,0.2971827928868226,-0.7157862461644636,-115.75534985997,-5.4723592467874,37.000087988787,37.185228631738,-122.00000066118,-8844203.208057908,-14155888.43301552,12578053.87814973,-8845194.159503393,-14155269.26603982,12578053.87814973,0.0040109511669508,2.6600268534723,0,3.22277454,0.999539245,1.20669911,41976984.1,69.1438593,1.20669911,-2.01607542,0,1,-0.523,0,3.12610631,0.174,0.348,0,-0.0293112559,-0.0732781397,-0.0688853669,0,0,0,-1,-151.495756,0,184.493081,-184.493081,360,30,0.5235,0.111684705,3.23779101,0,0,0,-2.66002685,-3.26088416,-0.391219359,26.7153518,0,0,0,-0,0,0,0.002,0,0,0,0,0,0,0,0,0,0,-825,-1.5,1.29951,29.9319,0,-0,-0,0,0,130,130,37.0000877145189477,-122.000001886963005,20900156.2961356603,11.7892059071859201
1.08,120.9786245308954,-65.00026531305305,-28.55985161343834,-141.7672118739202,-185.1381681357248,-20.15253691507932,120.9748924083481,-65.00063372306217,-28.55800991888956,0.8019070303,809511.3689,25.976716531,1217.15908635,-22.34520982657978,-2.489637476136362,13.01088408896581,33.07184971706845,16.70513713731241,17.44608506392968,1.234267925733464,4.418588034278237,-21.08233970314003,10.94152323083417,-0.1571474953864398,18.3951585682841,-22.34520982657978,-2.489637476136362,13.01088408896581,1031.088434585788,-646.2672046991312,25.91489276147085,-1.180843191856985,-1.346753225604084,25.91489276147083,19.57753836279083,-0.2877413129289622,-17.07123306393686, 2095.734879,-10.78165492, 13.55483334,-10.78165492, 1505.011878, 3.979907608, 13.55483334, 3.979907608, 3150.439301,77.08075536,2480,45.48951612903226,4.22741935483871,35.42701612903226,2.1680157631636,2.1680044434843,179.0402081417509,-10.98993324398988,185.8195751038803,-0.09605471650460758,-0.04972748955065578,0.9941270834589242,0.003465566860110692,-0.3733541741525159,-0.4497212327782882,-0.2781202546750302,0.7622378876510703,0.3733841888252544,0.4497102807712695,0.2781379633217173,-0.7622231853356204,149.78915776693,-5.4997330602663,37.000095907128,37.185236568954,-122.00000095183,-8844078.274692386,-14155963.96533305,12578055.88322016,-8845193.097969757,-14155267.40744666,12578055.88322016,0.0045123200628196,2.1680044434843,3.2586612256476e-09,3.2461634,0.999557018,1.20669905,41976983.1,69.1438556,1.20669905,-2.03946435,0,1,-0.523,0,-3.12484113,-0.174,0.348,0,-2.31044796,-5.77611991,-3.65713045,0,0,0,-1,197.926439,0,185.833263,-185.833263,360,30,0.5235,0.131769202,-2.99307192,0,0,0,-2.16800444,-3.12063813,-0.37440892,-17.445642,0,0,0,-0,0,0,0.002,0,0,0,0,0,0,0,0,0,0,-825,-1.5,1.29954,29.9323,0,-0,0,0,0,130,130,37.0000954890407669,-122.000002235012659,20900155.835673999,120.974892408348069
1.2,-0.9154279503805824,-84.9641210392458,-25.22493634477715,-45.33352632572871,-118.1956408215413,8.496271667324336,-0.9188017602052848,-84.96452454423167,-25.22250511166459,0.7320696782,773443.0833,24.8206015182,1216.69515844,-17.63404898653286,-2.543444120765312,17.28101467132089,40.2315001920343,-10.01827689741371,6.336881079432914,2.210722039700592,8.963842200774423,-22.20404617071402,12.30042720387507,-0.0395633365381326,12.29738605495192,-17.63404898653286,-2.543444120765312,17.28101467132089,1029.727810919896,-647.6152253096311,24.54106651684897,-2.547263549645269,-2.703657217464334,24.54106651684897,17.34990375476703,-0.7274818860191159,-17.73453888690482, 2095.734879,-10.78165492, 13.55483334,-10.78165492, 1505.011878, 3.979907608, 13.55483334, 3.979907608, 3150.439301,77.08075536,2480,45.48951612903226,4.22741935483871,35.42701612903226,4.3473426438868,4.3473199513158,-176.5407962409432,-2.112747042374429,189.5014965654211,-0.0158651018282745,-0.08332395977635106,0.9958950005788951,-0.03160006476465059,-0.3514541566774159,-0.3955740082549733,-0.2292810390103698,0.8169647390784905,0.3514899007459803,0.3955639762141306,0.2292983462178635,-0.8169493612317722,135.57931118776,-5.8816007812325,37.000101950736,37.185242604294,-122.00000116786,-8843954.671631666,-14156041.66795556,12578058.95113036,-8845193.367575608,-14155267.72014454,12578058.95113036,0.0050136889586885,4.3473199513158,3.2586612223201e-09,3.31042505,0.999478299,1.206699,41976982.4,69.1438528,1.206699,-2.10372605,0,1,-0.523,0,3.08121816,0.174,0.348,0,0.181969985,0.454924964,0.423382844,0,0,0,-1,-154.699339,0,189.515456,-189.515456,360,30,0.5235,0.150874166,3.23209232,0,0,0,-4.34731995,-3.13436012,-0.375986952,-18.1105258,0,0,0,-0,0,0,0.002,0,0,0,0,0,0,0,0,0,0,-825,-1.5,1.29953,29.9319,0,-0,0,0,0,130,130,37.0001014773319312,-122.000002436610515,20900158.0138435364,-0.918801760205284812
1.32,-6.015330594289224,-96.75846432977607,-24.20827117626498,-39.33397741105711,-76.66161967924522,8.453938708142624,-6.018158904486434,-96.75904899472758,-24.20525204861326,0.5801330328,688506.4075,22.0959374126,1216.32364693,-13.01538608029979,-3.685487784095546,17.47132951772166,36.32213889338704,-9.135629108478211,-2.851307021917474,5.166428777973776,12.81823361103758,-20.97230182373142,10.06168729801049,0.004441798460557941,7.293814802047923,-13.01538608029979,-3.685487784095546,17.47132951772166,1030.176513167137,-646.2953679701627,21.95138139352501,-2.104120329748269,-1.392832616194646,21.951381393525,16.10053718826921,-1.046306343031357,-15.0966352353259, 2095.734879,-10.78165492, 13.55483334,-10.78165492, 1505.011878, 3.979907608, 13.55483334, 3.979907608, 3150.439301,77.08075536,2480,45.48951612903226,4.22741935483871,35.42701612903226,6.320942286402,6.320909287531,-176.7427135870871,8.588984572491439,193.1147111665074,0.07759947885263185,-0.1117167843346566,0.99051158572097,-0.01960814963868847,-0.3516923209218008,-0.30893455679656,-0.2079742829498843,0.8588472790042659,0.3517336550811035,0.3089245470610084,0.2079891510986963,-0.8588303517759963,126.68451967039,-9.6015147960679,37.000107457416,37.185248103549,-122.00000153512,-8843831.080919417,-14156119.30720724,12578061.73919236,-8845193.650206605,-14155267.97054958,12578061.73919236,0.0055150578545573,6.320909287531,-3.2586612192881e-09,3.37348754,0.999407015,1.20669896,41976981.8,69.1438501,1.20669896,-2.16678859,0,1,-0.523,0,3.08474228,0.174,0.348,0,0.272041965,0.680104914,0.658847714,0,0,0,-1,-154.728129,0,193.128936,-193.128936,360,30,0.5235,0.169047368,3.25378965,0,0,0,-6.32090929,-3.34774458,-0.40151774,-15.498153,0,0,0,-0,0,0,0.002,0,0,0,0,0,0,0,0,0,0,-825,-1.5,1.29953,29.931,0,-0,0,0,0,130,130,37.0001069194397303,-122.000002879798572,20900160.0299571902,-6.01815890448643387
1.44,-10.45744662232917,-104.1994628508516,-23.18925777267136,-34.47796554693015,-46.71163126912385,8.56390424328735,-10.45954973776277,-104.2002270443403,-23.18572942784138,0.4540945373,609131.0285,19.5493434419,1216.02135736,-9.087955547977849,-4.728050204736806,16.65026829294525,28.85239797575036,-8.355733142770578,-10.26172119908537,7.394828097194671,15.4217706657172,-19.91270678621112,7.900081971864166,0.03978616802651817,4.147281837272598,-9.087955547977849,-4.728050204736806,16.65026829294525,1030.937131325963,-644.5900307948381,19.50038468061104,-1.348984435482988,0.3034259524262817,19.50038468061104,15.25914348515583,-1.304794923572858,-12.15042712477367, 2095.734879,-10.78165492, 13.55483334,-10.78165492, 1505.011878, 3.979907608, 13.55483334, 3.979907608, 3150.439301,77.08075536,2480,45.48951612903226,4.22741935483871,35.42701612903226,7.958223477006,7.9581819269852,-176.8058500307894,20.466829386412,196.7555872333575,0.1796907336107794,-0.1384275194889864,0.9739340198140372,-0.001259821978237236,-0.3527200510436709,-0.2087855514073376,-0.1848329888917438,0.8932154977006549,0.3527669472544261,0.2087758467910164,0.1848439505523931,-0.8931969775282893,118.62634595707,-13.995879948088,37.000112620603,37.185253261666,-122.00000202144,-8843707.416757923,-14156196.76343136,12578064.22502848,-8845193.860050825,-14155268.0390137,12578064.22502848,0.0060164267504262,7.9581819269852,-3.2586612164442e-09,3.43703282,0.999347882,1.20669891,41976981.2,69.1438475,1.20669891,-2.23033391,0,1,-0.523,0,3.08584422,0.174,0.348,0,0.35043567,0.876089174,0.857510606,0,0,0,-1,-154.140699,0,196.770081,-196.770081,360,30,0.5235,0.186334251,3.27217847,0,0,0,-7.95818193,-3.71265902,-0.445223621,-12.5956507,0,0,0,-0,0,0,0.002,0,0,0,0,0,0,0,0,0,0,-825,-1.5,1.29953,29.9299,0,-0,0,0,0,130,130,37.00011204088743,-122.000003449168872,20900161.724096749,-10.4595497377627726
1.56,-14.37214167866873,-108.6328480542202,-22.14902837786002,-30.58146290336685,-27.18232459425536,8.824669623394444,-14.3733748475629,-108.6337882289964,-22.14514872976732,0.3562485979,539521.8517,17.3158451994,1215.78898258,-6.186771777783344,-5.687459890275323,15.13985303545362,19.44697518166543,-7.75196928588237,-14.23630697481758,9.050026718972935,17.15715686560239,-19.05384608519865,6.081946213921062,0.06632439446383134,2.355537931313902,-6.186771777783344,-5.687459890275323,15.13985303545362,1031.929294675412,-642.6275490001861,17.16432990989824,-0.3622282924610387,2.25678186303307,17.16432990989822,14.71528288492581,-1.503099276379091,-9.002201794614423, 2095.734879,-10.78165492, 13.55483334,-10.78165492, 1505.011878, 3.979907608, 13.55483334, 3.979907608, 3150.439301,77.08075536,2480,45.48951612903226,4.22741935483871,35.42701612903226,9.22900621593,9.2289580340895,-176.5336658625621,33.06043430469047,200.6346163581394,0.2849854502716969,-0.1631525056299049,0.9442787855908634,0.02240821552837193,-0.3523847424968993,-0.09915827298986805,-0.1608756847086743,0.9165760438842899,0.3524368753946224,0.09914912246232631,0.1608813244219745,-0.916555999287145,112.22696087928,-19.174970875924,37.00011755525,37.185258194076,-122.00000260175,-8843583.646755647,-14156273.99856213,12578066.42388303,-8845193.964707615,-14155267.88747674,12578066.42388303,0.006517795646295,9.2289580340895,3.2586612137248e-09,3.50473465,0.999301988,1.20669886,41976980.8,69.1438449,1.20669886,-2.29803578,0,1,-0.523,0,3.08109371,0.174,0.348,0,0.419452396,1.04863099,1.03219516,0,0,0,-1,-152.543631,0,200.649395,-200.649395,360,30,0.5235,0.202778042,3.28387175,0,0,0,-9.22895803,-4.18111834,-0.501348326,-9.50355012,0,0,0,-0,0,0,0.002,0,0,0,0,0,0,0,0,0,0,-825,-1.5,1.29953,29.9285,0,-0,0,0,0,130,130,37.0001169738183151,-122.000004108477711,20900163.0620809086,-14.3733748475629017
1.68,-17.88121809742788,-111.2377095544685,-21.05723466908221,-27.78761071160743,-16.69658333183762,9.487942724721309,-17.8814910174241,-111.2388174254261,-21.05321541043522,0.2880562437,485140.5039,15.5708162985,1215.62058711,-4.427068944949753,-6.592762255396226,13.39353824059156,10.10197984608915,-7.464724441567152,-14.22430456114687,10.20811100197128,18.24402839317684,-18.33606150829788,4.821127167047218,0.07110908652438608,1.485287795845715,-4.427068944949753,-6.592762255396226,13.39353824059156,1033.089341253869,-640.4975921828886,14.9217696687476,0.7924837418115056,4.377565496199068,14.92176966874761,14.38551748037687,-1.647692192968363,-5.726457671257762, 2095.734879,-10.78165492, 13.55483334,-10.78165492, 1505.011878, 3.979907608, 13.55483334, 3.979907608, 3150.439301,77.08075536,2480,45.48951612903226,4.22741935483871,35.42701612903226,10.113675117493,10.113622314058,-175.5551583002513,46.04652918086207,205.176704041776,0.3891944569684475,-0.1856318073205394,0.9008518592659337,0.05034316669674024,-0.3492543044459186,0.01634409696991021,-0.1368893521614763,0.9268309482235945,0.3493110756767019,-0.01635248192758844,0.1368883507671796,-0.926809553343423,108.29066646342,-25.049749972773,37.000122344769,37.18526298452,-122.00000325234,-8843459.747020794,-14156350.98737127,12578068.34819189,-8845193.940276301,-14155267.49071609,12578068.34819189,0.0070191645421639,10.113622314058,3.2586612110836e-09,3.58400903,0.999270039,1.20669882,41976980.3,69.1438424,1.20669882,-2.37731021,0,1,-0.523,0,3.06401553,0.174,0.348,0,0.481198281,1.2029957,1.18813701,0,0,0,-1,-148.751315,0,205.191818,-205.191818,360,30,0.5235,0.218419858,3.28243539,0,0,0,-10.1136223,-4.70737301,-0.564408673,-6.29086634,0,0,0,-0,0,0,0.002,0,0,0,0,0,0,0,0,0,0,-825,-1.5,1.29953,29.927,0,-0,0,0,0,130,130,37.0001218116278423,-122.000004822924666,20900164.0189624988,-17.8814910174240964
1.8,-21.07233455638943,-112.9867727543488,-19.87154780567396,-25.16485461616339,-13.07390514371459,10.380893411249,-21.0716201050322,-112.9880331100464,-19.86762895811018,0.2503279209,452253.1178,14.5154490597,1215.50871181,-3.69360367337446,-7.489235380118735,11.87294852718303,2.571435541874198,-7.609732237189455,-10.60627090175091,11.01333345940703,18.83320095438432,-17.61280297762558,4.174427474563304,0.07801321679552269,1.20263058731454,-3.69360367337446,-7.489235380118735,11.87294852718303,1034.365346346071,-638.2686283209496,12.76388930577272,2.063223513904699,6.597310052254384,12.76388930577272,14.21110018637848,-1.74632937731974,-2.386048323598799, 2095.734879,-10.78165492, 13.55483334,-10.78165492, 1505.011878, 3.979907608, 13.55483334, 3.979907608, 3150.439301,77.08075536,2480,45.48951612903226,4.22741935483871,35.42701612903226,10.600785318762,10.600729973775,-172.8801054187143,59.19266503050972,211.4428544096765,0.4891223270633983,-0.2056331074243191,0.8436923739564148,0.08159382591160573,-0.3424687141839723,0.134740048728967,-0.1134344524768892,0.9228721060173833,0.3425292806521397,-0.1347474930324393,0.1134256093732309,-0.9228496281386863,107.28060723809,-31.060926800788,37.000127049035,37.185267693082,-122.00000395288,-8843335.700700114,-14156427.71404622,12578070.00846723,-8845193.769895114,-14155266.83292483,12578070.00846723,0.0075205334380327,10.600729973775,0,3.69337399,0.999252448,1.20669878,41976979.9,69.1438398,1.20669878,-2.48667521,0,1,-0.523,0,3.01732705,0.174,0.348,0,0.537350477,1.34337619,1.32988586,0,0,0,-1,-138.714348,0,211.45843,-211.45843,360,30,0.5235,0.233298813,3.25062586,0,0,0,-10.60073,-5.24856653,-0.629271594,-3.01531992,0,0,0,-0,0,0,0.002,0,0,0,0,0,0,0,0,0,0,-825,-1.5,1.29953,29.9255,0,-0,0,0,0,130,130,37.0001266174196317,-122.00000556244666,20900164.5775266178,-21.0716201050321921
1.92,-23.93762788323247,-114.5575233706228,-18.5679909522501,-22.27444099916404,-13.6095342213943,11.46387563793202,-23.935963262774,-114.5589122570429,-18.56441935083114,0.2433323569,445888.7462,14.3112082657,1215.45394309,-3.688164545009799,-8.435265583044707,10.95693473820817,-1.872995987024222,-8.295529684215165,-4.345266101839292,11.66813366081659,19.08944336482839,-16.73073247118175,4.094594831104311,0.0920258678028279,1.286330023921891,-3.688164545009799,-8.435265583044707,10.95693473820817,1035.726604271115,-635.9907037003571,10.70111106349402,3.419281567138433,8.865969636554819,10.70111106349403,14.16484732535807,-1.798533646192737,0.9659497904797965, 2095.734879,-10.78165492, 13.55483334,-10.78165492, 1505.011878, 3.979907608, 13.55483334, 3.979907608, 3150.439301,77.08075536,2480,45.48951612903226,4.22741935483871,35.42701612903226,10.685886178166,10.685830390817,-164.5784089911901,72.18430170959061,223.437716063451,0.5824400670125441,-0.2228963501969199,0.7731670996582416,0.1152971006286714,-0.3315530401379582,0.2536316318697389,-0.09082410142610332,0.9041540573876289,0.3316163340009979,-0.2536379893262666,0.09080634589770997,-0.9041308450323841,108.60351629803,-36.115628534116,37.000131713738,37.185272365577,-122.00000468469,-8843211.495963322,-14156504.16990891,12578071.41530931,-8845193.441725692,-14155265.90543035,12578071.41530931,0.0080219023339016,10.685830390817,3.2586612059115e-09,3.90272382,0.999249375,1.20669873,41976979.5,69.1438372,1.20669873,-2.69602509,0,1,-0.523,0,2.87243511,0.174,0.348,0,0.587857412,1.46964353,1.45761913,0,0,0,-1,-101.23204,0,223.454175,-223.454175,360,30,0.5235,0.247452112,3.11988723,0,0,0,-10.6858304,-5.76517901,-0.691205421,0.27474437,0,0,0,-0,0,0,0.002,0,0,0,0,0,0,0,0,0,0,-825,-1.5,1.29953,29.9241,0,-0,0,0,0,130,130,37.0001314345803962,-122.000006300479669,20900164.7276938744,-23.9359632627740027
2.04,-30.77205070017576,-15.69130661327003,-33.0527332269078,-1.312687582455107,9.893339774555246,-3.916290858441928,-30.76995284277075,-15.6927840253401,-33.04943587170431,0.2306577653,434119.7072,13.9335625862,1215.53350907,1.903234042935399,-8.300022897770406,11.02866657480306,-14.72831487514394,-8.027613009541685,-12.19495206548782,8.141494989621634,15.96802239588053,-15.87848904597539,8.691241409092418,0.7680011238129907,-0.6839412938875953,1.903234042935399,-8.300022897770406,11.02866657480306,1033.884064301866,-639.0984526406339,12.59448662084156,1.570768782603531,5.749413755585934,12.59448662084156,13.48382169771186,-1.714638163124717,-3.064430573165393, 2095.734879,-10.78165492, 13.55483334,-10.78165492, 1505.011878, 3.979907608, 13.55483334, 3.979907608, 3150.439301,77.08075536,2480,45.48951612903226,4.22741935483871,35.42701612903226,10.963179387152,10.963122152205,-148.7062486735232,76.2440279345176,243.3582230236853,0.6173158432125597,-0.2561405344473755,0.7321123011248546,0.1316235346488207,-0.3015547216432641,0.311179029543073,-0.09254904662669476,0.8964747823535107,0.3016214002205706,-0.3111859124408652,0.09252590100736661,-0.8964523503623064,80.208815544674,-36.561523992974,37.000136290925,37.185276948689,-122.00000533576,-8843087.362155238,-14156580.78368922,12578072.91238231,-8845193.185169538,-14155265.13693258,12578072.91238231,0.0085232712297704,10.963122152205,-3.2586612033847e-09,4.25040225,0.999239361,1.20669869,41976979.1,69.1438348,1.20669869,-3.04370357,0,1,-0.523,0,2.59541366,0.174,0.348,0,0.710279182,1.77569796,1.76876219,0,0,0,-1,-87.4292797,0,243.376149,-243.376149,360,30,0.5235,0.260915146,2.8563288,0,0,0,-10.9631222,-6.24260974,-0.74842878,-3.81285935,0,0,0,-0,0,0,0.002,0,0,0,0,0,0,0,0,0,0,-825,-1.5,1.29953,29.9228,0,-0,0,0,0,130,130,37.0001361536955287,-122.000006967514338,20900165.0127101392,-30.7699528427707527
2.16,-30.82073533745221,-18.57076456093162,-32.87565462984187,-9.507688293795859,24.53257002070132,-24.14088155974369,-30.81841916850995,-18.57229693733548,-32.87253317386071,0.2167562371,420833.7844,13.5071891682,1215.3908742,-0.2317634347516639,-9.44956291515677,9.648637502171017,-9.347618366981088,-8.895608007440318,-10.88273723415909,6.02609032953359,12.8353055008952,-13.00021749921686,13.21650403135793,2.148895798469508,-0.1441527287282249,-0.2317634347516639,-9.44956291515677,9.648637502171017,1035.111078678679,-636.8742554488946,10.54583518985571,2.792600016954044,7.964352109192832,10.5458351898557,13.37829861781801,-1.852205354294268,0.1860662341938804, 2095.734879,-10.78165492, 13.55483334,-10.78165492, 1505.011878, 3.979907608, 13.55483334, 3.979907608, 3150.439301,77.08075536,2480,45.48951612903226,4.22741935483871,35.42701612903226,11.128101643175,11.128043546035,-135.0465289616558,75.4095053400367,261.2469448666569,0.6258735049769251,-0.2985215352901696,0.707121209613251,0.1383721202084853,-0.2619738704115518,0.3396725211625795,-0.1052167678426779,0.8971742870554128,0.2620445264182787,-0.3396808064391184,0.1051900166606754,-0.8971536525623783,91.375998801483,-44.394525215448,37.000140711478,37.185281375877,-122.00000606915,-8842963.218775854,-14156657.3368487,12578074.29630868,-8845192.919696391,-14155264.30890387,12578074.29630868,0.0090246401256393,11.128043546035,0,4.56261935,0.999233405,1.20669864,41976978.7,69.1438323,1.20669864,2.9272646,0,1,0.523,0,2.35700657,0.174,0.348,0,0.710747315,1.77686829,1.77557311,0,0,0,-1,-78.8045703,0,261.266189,-261.266189,360,30,0.5235,0.273721578,2.63072815,0,0,0,-11.1280435,-6.70296709,-0.803610138,-0.617543904,0,0,0,-0,0,0,0.002,0,0,0,0,0,0,0,0,0,0,-825,-1.5,1.29953,29.9217,0,-0,0,0,0,130,130,37.0001406988866464,-122.000007722856509,20900165.158609543,-30.8184191685099549
2.28,-33.02871304040623,-9.816316176423767,-39.64946928744146,-21.0746794863862,86.00838033612163,-71.94590767832356,-33.02618508587361,-9.817869248803255,-39.64652756761802,0.2090208025,413256.7905,13.2639608675,1215.07369711,-0.3584588630367165,-10.33684480856546,8.303842757460782,0.9408106139001112,-7.403623903496245,-11.72691579262225,0.04934611566248126,6.106193098816776,-7.843634981176619,23.15470964976838,5.294950410833104,-0.6449446218354797,-0.3584588630367165,-10.33684480856546,8.303842757460782,1035.271394341826,-636.0247700605499,9.472134302384646,2.94755637299424,8.804728336473488,9.472134302384646,13.00326607013508,-2.166126677199453,1.468204556963591, 2095.734879,-10.78165492, 13.55483334,-10.78165492, 1505.011878, 3.979907608, 13.55483334, 3.979907608, 3150.439301,77.08075536,2480,45.48951612903226,4.22741935483871,35.42701612903226,11.017287060618,11.017229545179,-124.0813741442116,73.27159642165829,276.5696560313892,0.6315670197545707,-0.3429123335845403,0.6804838250521363,0.1430943565496138,-0.2186979813516923,0.366116211827763,-0.1179676219846732,0.8967796566341503,0.2187725299883362,-0.3661260172242175,0.1179371862957656,-0.8967614731480564,92.471799798775,-51.19818379933,37.000145053622,37.185285726961,-122.00000689033,-8842838.988917563,-14156733.70326239,12578075.49150521,-8845192.568376102,-14155263.29523227,12578075.49150521,0.0095260090215081,11.017229545179,3.2586611985449e-09,4.83005111,0.999237407,1.2066986,41976978.4,69.1438298,1.2066986,2.6598328,0,1,0.523,0,2.16562852,0.174,0.348,0,0.746695312,1.86673828,1.85529103,0,0,0,-1,-83.127744,0,276.590029,-276.590029,360,30,0.5235,0.285903433,2.45153195,0,0,0,-11.0172295,-7.11984651,-0.853597168,0.614607389,0,0,0,-0,0,0,0.002,0,0,0,0,0,0,0,0,0,0,-825,-1.5,1.29953,29.9206,0,-0,0,0,0,130,130,37.0001451670368979,-122.00000855395831,20900165.0231670588,-33.0261850858736068
2.4,-35.08319444992065,-1.842691108744348,-47.50795326354879,-13.03880220042906,46.55171849570561,-58.82105754618033,-35.08049178435743,-1.844210530671011,-47.50515268158843,0.2106374601,414852.8537,13.3151067391,1214.6996231,-0.573935585528095,-11.40343882865199,6.850127611930477,-3.755493978475255,-10.42402840919562,-12.55757844109905,3.546876850400456,11.27877064314691,-10.34515873443648,16.61594998058609,4.30218674077012,-0.1459322050096672,-0.573935585528095,-11.40343882865199,6.850127611930477,1035.496161423502,-634.9589434246615,8.367449155452013,3.167024069209909,9.861430963650573,8.367449155452015,12.73509003909156,-2.539974885794235,2.942461002399413, 2095.734879,-10.78165492, 13.55483334,-10.78165492, 1505.011878, 3.979907608, 13.55483334, 3.979907608, 3150.439301,77.08075536,2480,45.48951612903226,4.22741935483871,35.42701612903226,10.760947611183,10.760891431462,-118.4491976198277,69.1596523146173,286.8201328338805,0.6289236987159442,-0.3948778796318157,0.6548366612901041,0.1404114966851614,-0.1652402618761787,0.3840617997625504,-0.1316976681774087,0.8988036014696847,0.1653189113941321,-0.3840733225466173,0.1316640601995027,-0.8987891386166408,94.789321276773,-58.91792557345,37.000149278823,37.185289962178,-122.0000078608,-8842714.747375444,-14156809.96884047,12578076.56513691,-8845192.206013897,-14155262.18181716,12578076.56513691,0.010027377917377,10.760891431462,3.2586611962098e-09,5.00895568,0.999246664,1.20669856,41976978.1,69.1438272,1.20669856,2.48092818,0,1,0.523,0,2.06732849,0.174,0.348,0,0.783966343,1.95991586,1.95237832,0,0,0,-1,-92.6487952,0,286.84126,-286.84126,360,30,0.5235,0.29749117,2.36481967,0,0,0,-10.7608914,-7.47973624,-0.896763459,2.04569754,0,0,0,-0,0,0,0.002,0,0,0,0,0,0,0,0,0,0,-825,-1.5,1.29952,29.9197,0,-0,0,0,0,130,130,37.0001495170314314,-122.000009524993402,20900164.7278286777,-35.0804917843574273
2.52,-36.49239524342674,2.975644174657428,-54.60551128661039,-10.60128739025166,34.9575910594562,-60.66169988553654,-36.48953816265938,2.97421503267503,-54.60281852851924,0.2286780412,432255.3762,13.8735018089,1214.35436457,-0.9880426039535823,-12.79335606996932,5.275212291534733,-2.44200249413624,-12.67398697902348,-13.79620969846173,4.846212919052628,13.2294191183169,-10.56338390828937,14.46697156401021,4.376690105815338,0.732215692359083,-0.9880426039535823,-12.79335606996932,5.275212291534733,1036.010431043914,-633.4733582556863,7.100275001314457,3.676101409304018,11.33783161699049,7.100275001314456,12.64533655933113,-2.890626399213637,4.92075144286113, 2095.734879,-10.78165492, 13.55483334,-10.78165492, 1505.011878, 3.979907608, 13.55483334, 3.979907608, 3150.439301,77.08075536,2480,45.48951612903226,4.22741935483871,35.42701612903226,10.291327457875,10.291273726293,-116.4042484217368,63.71965964756325,293.7211887319638,0.6199943341215758,-0.4524001530628829,0.6275212596972365,0.1309892964856946,-0.1027283429151858,0.3960038560884382,-0.1446797322084469,0.9009415123153554,0.1028111215723128,-0.396017147684569,0.1446433465064972,-0.9009320697656525,100.60853601823,-67.241449622845,37.000153445325,37.185294140482,-122.00000897946,-8842590.458411729,-14156886.0769656,12578077.49335401,-8845191.796858983,-14155260.91204804,12578077.49335401,0.010528746813246,10.291273726293,-3.2586611939062e-09,5.12940183,0.999263623,1.20669851,41976977.8,69.1438246,1.20669851,2.36048199,0,1,0.523,0,2.0316374,0.174,0.348,0,0.809028631,2.02257158,2.01677346,0,0,0.00153398437,-1,-98.7155448,0,293.742825,-293.742825,360,30,0.5235,0.308513767,2.34015116,0,0,0,-10.2912737,-7.77113944,-0.931736979,3.98901446,0,0,0,-0,0,0,0.002,0,0,0,0,0,0,0,0,0,0,-825,-1.5,1.29952,29.9189,0,-0,0,0,0,130,130,37.0001538052748913,-122.000010624900767,20900164.2074860744,-36.4895381626593789
2.64,-37.59228408810148,6.424684508066543,-61.79884180904779,-7.377431893070508,19.96627980883743,-58.09966567762181,-37.5892883618062,6.423405100105008,-61.79622550579965,0.264263149,464675.0729,14.913775338,1214.03040299,-1.110171385289087,-14.44773472353183,3.528622349445066,0.8476809806926731,-14.87959256133785,-15.37085460379475,6.21455924108364,14.96282893263749,-10.41238889813465,12.69580543840788,4.233431333632408,1.935587434621292,-1.110171385289087,-14.44773472353183,3.528622349445066,1036.672342431753,-631.780178553729,5.837790944476887,4.332900228833334,13.02178433728746,5.837790944476886,12.71301419341452,-3.225988969181612,7.098799907028284, 2095.734879,-10.78165492, 13.55483334,-10.78165492, 1505.011878, 3.979907608, 13.55483334, 3.979907608, 3150.439301,77.08075536,2480,45.48951612903226,4.22741935483871,35.42701612903226,9.5722069591284,9.572156983224,-116.2817510048677,57.23454311727442,298.9614254066615,0.6057433058320495,-0.5139119432822177,0.5964164684685156,0.1151388645553661,-0.03179781609778298,0.4033201048580975,-0.1556717816901988,0.9011593023955664,0.03188455786625877,-0.4033350873199066,0.1556329590221525,-0.9011562374928809,107.46456230043,-75.638718676423,37.000157605201,37.185298314361,-122.00001024025,-8842466.099126119,-14156961.99430214,12578078.26949148,-8845191.318000525,-14155259.45259492,12578078.26949148,0.011030115709115,9.572156983224,0,5.22086121,0.999289594,1.20669846,41976977.6,69.1438218,1.20669846,2.26902256,0,1,0.523,0,2.02949942,0.174,0.348,0,0.828778056,2.07194514,2.06770819,0,0,0.00306796875,-1,-102.796043,0,298.983447,-298.983447,360,30,0.5235,0.318998784,2.3484982,0,0,0,-9.57215698,-7.97823919,-0.95662501,6.1421749,0,0,0,-0,0,0,0.002,0,0,0,0,0,0,0,0,0,0,-825,-1.5,1.29952,29.9184,0,-0,0,0,0,130,130,37.0001580804856189,-122.000011838102964,20900163.4277170263,-37.5892883618061973
2.76,-50.30667105666833,30.76080094223686,4.709506513330977,-2.070514058297171,62.82003641257558,-73.75664669130764,-50.30371882076646,30.7593147240909,4.71206224458774,0.1667907793,369163.3103,11.8482182148,1213.45615841,3.456939084469105,-11.03286920861849,2.589525836348757,-22.55197553864565,-13.14089732636183,-17.4901146115176,8.562351073460714,16.57473308467439,-16.45594855269371,6.453792735993705,4.475688334796884,0.01144741298579166,3.456939084469105,-11.03286920861849,2.589525836348757,1033.358535767186,-636.0682053917486,7.95129075365865,1.012787665367709,8.725337320756791,7.95129075365865,11.1312720806747,-3.764833308449347,1.516933383808301, 2095.734879,-10.78165492, 13.55483334,-10.78165492, 1505.011878, 3.979907608, 13.55483334, 3.979907608, 3150.439301,77.08075536,2480,45.48951612903226,4.22741935483871,35.42701612903226,9.2152469605207,9.2151988586305,-122.7105741221959,56.17385238059735,297.4606776295881,0.5759582748435083,-0.5446324451405656,0.5948006444848575,0.1336404080355064,-0.007805676586595794,0.3952740349929662,-0.1946998745155789,0.8976577674910537,0.007896008913583104,-0.3952936258710163,0.1946600966344871,-0.8976569774514281,36.836167236265,-68.620110681174,37.000161470439,37.185302189849,-122.00001174384,-8842341.986815037,-14157038.17348495,12578079.17795776,-8845191.086821051,-14155258.25603064,12578079.17795776,0.011531484604984,9.2151988586305,6.5173223789364e-09,5.19466822,0.999302485,1.20669841,41976977.5,69.143819,1.20669841,2.2952155,0,1,0.523,0,2.14170355,0.174,0.348,0,1.04853707,2.62134268,2.58407262,0,0,0.00920390625,-1,-139.909911,0,297.482589,-297.482589,360,30,0.5235,0.32897244,2.47067599,0,0,0,-9.21519886,-8.10583292,-0.971952978,0.544980405,0,0,0,-0,0,0,0.002,0,0,0,0,0,0,0,0,0,0,-825,-1.5,1.29953,29.9179,0,-0,-0,0,0,130,130,37.000162035091364,-122.000013292020228,20900163.0539201237,-50.3037188207664556
2.88,-49.16119971139656,36.08196008127988,0.1361076995974261,3.100133966851753,264.9928935482122,-57.54765948969546,-49.15842846124988,36.08018901992244,0.1386844839786312,0.1910469723,395097.4122,12.6804479716,1213.32738507,0.5159682705799824,-12.66952853967421,0.1028789948750219,-22.44417704116137,-10.42103611927769,-18.58163279851909,13.37471278630652,16.07441038301949,-15.40044475155349,3.692432359739825,3.389928669210151,4.8943275937733,0.5159682705799824,-12.66952853967421,0.1028789948750219,1034.655395874143,-633.7335326394077,5.776222676380668,2.304657235689742,11.05068176088243,5.776222676380669,11.0040576208204,-3.901511431511132,4.947998099120841, 2095.734879,-10.78165492, 13.55483334,-10.78165492, 1505.011878, 3.979907608, 13.55483334, 3.979907608, 3150.439301,77.08075536,2480,45.48951612903226,4.22741935483871,35.42701612903226,8.8204739950597,8.8204279490425,-133.3020970833446,54.09371767819719,291.8298173785818,0.5263109842430416,-0.5762246338025325,0.6075161723219238,0.1479392430411107,0.01656379957166192,0.364457046856791,-0.2424895621319986,0.8989413294521552,-0.01646940483735851,-0.3644825078169641,0.2424512904523262,-0.8989430638020195,11.276331050673,-87.622056533772,37.000165109889,37.185305839471,-122.00001333049,-8842217.904741852,-14157114.35537037,12578079.99805015,-8845190.886536403,-14155257.06325055,12578079.99805015,0.012032853500852,8.8204279490425,3.258661187456e-09,5.09639117,0.999316742,1.20669836,41976977.5,69.1438163,1.20669836,2.3934925,0,1,0.523,0,2.32656049,0.174,0.348,0,1.03243867,2.58109667,2.58327238,0,0,0.0490875,-1,-146.550806,0,291.851314,-291.851314,360,30,0.5235,0.338459674,2.66502017,0,0,0,-8.82042795,-8.1955895,-0.98274785,3.96525025,0,0,0,-0,0,0,0.002,0,0,0,0,0,0,0,0,0,0,-825,-1.5,1.29952,29.9174,0,-0,-0,0,0,130,130,37.0001657506266923,-122.000014824945424,20900162.638458252,-49.1584284612498834
3,-46.75868365604902,54.30922682219178,-1.303850223080981,25.23081657595224,-8.962567268382651,-5.911239069752305,-46.75618438659638,54.30719613592698,-1.301188218394372,0.2487436713,450830.4583,14.4689033546,1213.02792508,-1.644694780896749,-14.05779501888665,-3.003754745014922,-16.80738751729841,-9.689616075874888,-32.43062251790186,8.662876918976021,22.61533018800061,-18.42568039230565,4.467568930711814,0.1611548563511866,-2.493436830212282,-1.644694780896749,-14.05779501888665,-3.003754745014922,1035.808369282081,-631.286215174806,3.934929372828635,3.452725106340105,13.48866874285384,3.934929372828636,11.15443561485545,-4.219831928777302,8.192725364032334, 2095.734879,-10.78165492, 13.55483334,-10.78165492, 1505.011878, 3.979907608, 13.55483334, 3.979907608, 3150.439301,77.08075536,2480,45.48951612903226,4.22741935483871,35.42701612903226,8.0460645668209,8.0460225615765,-144.0426048209201,49.48255290188742,285.5460880969515,0.4640430015529802,-0.6096929681150334,0.6254736581200768,0.1473814111028624,0.04862710941517527,0.315667931868496,-0.2859814125054695,0.9034399773760112,-0.04852828930131681,-0.3156992111202687,0.2859468824918309,-0.9034452908885688,-118.70274567794,-76.309110293233,37.000168769062,37.18530951222,-122.00001496685,-8842093.671382628,-14157190.26765276,12578080.59540241,-8845190.535563169,-14155255.60198792,12578080.59540241,0.012534222396721,8.0460225615765,3.2586611854311e-09,4.9867194,0.99934471,1.20669832,41976977.5,69.1438135,1.20669832,2.50316422,0,1,0.523,0,2.51401772,0.174,0.348,0,0.994454568,2.48613642,2.49900393,0,0,0.176408203,-1,-155.561711,0,285.567122,-285.567122,360,30,0.5235,0.34748421,2.86150193,0,0,0,-8.04602256,-8.220727,-0.985825795,7.20689957,0,0,0,-0,0,0,0.002,0,0,0,0,0,0,0,0,0,0,-825,-1.5,1.29952,29.9172,0,-0,-0,0,0,130,130,37.0001694705546313,-122.000016401360028,20900161.8319753669,-46.7561843865963809
3.12,-55.40071359802801,59.45310570029552,7.239682104684195,-27.17099636551631,438.6837523891001,-164.975809982818,-55.39852623088393,59.45077757569444,7.242374977550357,0.299120784,494384.8995,15.8662952285,1212.37855556,-2.503525443356889,-14.19590706756436,-6.629321772367809,1.256345665656559,6.589310127292398,-27.85590315054652,-1.519539255709838,7.664709459118671,-9.360640303144676,18.64077394902518,9.984807213499616,9.115524004345145,-2.503525443356889,-14.19590706756436,-6.629321772367809,1036.12267186334,-629.5285192599213,2.326859253822176,3.762029237441675,15.23719745581795,2.326859253822179,10.86859369656928,-4.884107115275873,10.47656876193036, 2095.734879,-10.78165492, 13.55483334,-10.78165492, 1505.011878, 3.979907608, 13.55483334, 3.979907608, 3150.439301,77.08075536,2480,45.48951612903226,4.22741935483871,35.42701612903226,6.8878238610923,6.8877879026085,-153.8866840952541,44.33447820908654,280.2250069462594,0.3962403636962998,-0.6375571346326706,0.6439343614960182,0.147861463341596,0.0768714989972793,0.2615897621644944,-0.3306181178971898,0.9035226776848241,-0.07676871647629299,-0.2616273705950959,0.3305883580930417,-0.9035314165093684,-110.68875682826,-63.472611827122,37.000172401175,37.185313161267,-122.00001683677,-8841969.335860008,-14157265.88786373,12578080.95389417,-8845190.083011821,-14155253.84976716,12578080.95389417,0.01303559129259,6.8877879026085,-3.2586611834193e-09,4.89384902,0.999386541,1.20669826,41976977.5,69.1438105,1.20669826,2.59603455,0,1,0.523,0,2.68582931,0.174,0.348,0,1.12610252,2.81525631,2.81608282,0,0,0.316000781,-1,-164.844445,0,280.245649,-280.245649,360,30,0.5235,0.356068614,3.04189793,0,0,0,-6.8877879,-8.15047146,-0.977495185,9.49907358,0,0,0,-0,0,0,0.002,0,0,0,0,0,0,0,0,0,0,-825,-1.5,1.29952,29.9172,0,-0,-0,0,0,130,130,37.0001731642864726,-122.000018203418946,20900160.648285158,-55.398526230883931
3.24,-58.81285200063919,70.53071524995387,5.731132754480135,1.954342903892879,66.15403268867989,-20.30905636347995,-58.81107243121867,70.52804077558413,5.733804200339162,0.3848742586,560798.7928,17.9971043271,1211.71486708,-2.783526233279398,-13.80143341422169,-11.2101820494551,2.212196797245184,6.675219766033489,-40.72142593647589,5.020400339777246,19.79309858887536,-15.86429125833921,9.17548984524986,2.038166505658322,1.506739589120161,-2.783526233279398,-13.80143341422169,-11.2101820494551,1036.702434459576,-627.2963812160044,0.4812521959466952,4.336950979301992,17.46009784301059,0.4812521959466967,10.72172412267539,-5.574504849487172,13.33661470091866, 2095.734879,-10.78165492, 13.55483334,-10.78165492, 1505.011878, 3.979907608, 13.55483334, 3.979907608, 3150.439301,77.08075536,2480,45.48951612903226,4.22741935483871,35.42701612903226,5.4660881981254,5.466059663157,-163.8203699343928,37.07115217084407,275.5608229280724,-0.3103017477315394,0.665110083057799,-0.6639060966326388,-0.1434227932499339,0.1100397517751681,0.1905139422445673,-0.3794814908739703,0.8986598293702474,-0.1099335902882892,-0.1905587699224135,0.3794589823830162,-0.8986728223446112,-103.94471670225,-50.073613930814,37.00017593559,37.185316714775,-122.00001898623,-8841844.968700487,-14157341.30362758,12578081.12541782,-8845189.599421903,-14155251.89419857,12578081.12541782,0.013536960188459,5.466059663157,3.2586611814601e-09,4.81244365,0.999437891,1.20669821,41976977.6,69.1438074,1.20669821,2.67743987,0,1,0.523,0,2.85920484,0.174,0.348,0,1.19398043,2.98495106,2.98094487,0,0,0.420311719,-1,-170.673803,0,275.581121,-275.581121,360,30,0.5235,0.36423435,3.22343919,0,0,0,-5.46605966,-7.96447344,-0.955301468,12.3813132,0,0,0,-0,0,0,0.002,0,0,0,0,0,0,0,0,0,0,-825,-1.5,1.29952,29.9175,0,-0,-0,0,0,130,130,37.0001767690219197,-122.00002026248626,20900159.1999988109,-58.8110724312186761
3.36,-62.51900260967383,78.80292027595388,5.434326351652126,30.53951912225812,71.2012511271319,-29.97525802173138,-62.5176629586312,78.79989758001093,5.436880749384453,0.4910433957,633453.4746,20.3278702209,1210.93088067,-1.658676739182189,-12.42524926559805,-16.00263352956334,14.81948737633973,15.32573436715141,-41.63211601836438,4.604025677861587,20.78015084607518,-16.03786596260093,9.328082828500049,1.327807781854163,2.229318442987139,-1.658676739182189,-12.42524926559805,-16.00263352956334,1037.151836108157,-625.0343250905127,-1.326302047672428,4.781578266585048,19.71293331490054,-1.32630204767243,10.57878353720482,-6.391261978429293,16.138879047657, 2095.734879,-10.78165492, 13.55483334,-10.78165492, 1505.011878, 3.979907608, 13.55483334, 3.979907608, 3150.439301,77.08075536,2480,45.48951612903226,4.22741935483871,35.42701612903226,3.6941595263779,3.694140245746,-172.6388508803608,28.49248136396966,272.645300453823,-0.2145980438817011,0.688642912132203,-0.6794034544662833,-0.1346460738065079,0.1457946702578073,0.1107785482204064,-0.4266582978791241,0.885683196312025,-0.1456861663015145,-0.1108308162440687,0.4266447234709528,-0.8857010506110035,-95.917589809272,-37.679366260217,37.000179424882,37.185320226185,-122.00002144621,-8841720.534747453,-14157416.44160393,12578081.07307527,-8845189.049613491,-14155249.6619512,12578081.07307527,0.014038329084328,3.694140245746,-3.2586611795241e-09,4.76155818,0.999501892,1.20669815,41976977.8,69.143804,1.20669815,2.72832527,0,1,0.523,0,3.01311636,0.174,0.348,0,1.24216703,3.10541758,3.1063254,0,0,0.380428125,-1,-175.482931,0,272.665384,-272.665384,360,30,0.5235,0.372001839,3.3851182,0,0,0,-3.69414025,-7.64372392,-0.916964499,15.2219145,0,0,0,-0,0,0,0.002,0,0,0,0,0,0,0,0,0,0,-825,-1.5,1.29952,29.9181,0,-0,-0,0,0,130,130,37.0001803353208274,-122.00002261098777,20900157.4052600525,-62.517662958631206
3.48,14.29231727011518,85.79253759554928,-7.356357716477514,12735.9515167171,-785.0940265560359,-1834.842310462328,14.29319814937118,85.78917813684926,-7.35403513333933,0.468689289,618879.0775,19.8591687579,1210.40807402,1.764492372058028,-9.535244039061821,-17.33067429554885,111.7247288626108,60.39919880173755,374.1849094658023,-151.2370906431525,-308.793801442124,171.1847090187522,94.7821639210284,64.08253535878735,399.6404592230765,1.764492372058028,-9.535244039061821,-17.33067429554885,1036.352444059623,-625.3469221544013,-1.595081468062735,3.976817960811514,19.39142124163988,-1.595081468062734,9.942109651848201,-6.9033626326015,15.74435212345496, 2095.734879,-10.78165492, 13.55483334,-10.78165492, 1505.011878, 3.979907608, 13.55483334, 3.979907608, 3150.439301,77.08075536,2480,45.48951612903226,4.22741935483871,35.42701612903226,1.5868673324585,1.5868590503206,179.2218419862421,18.55243700527175,271.405975057542,-0.1077751679399495,0.7071175183589997,-0.6884457344293176,-0.1200491530640795,0.1850516150643571,0.02122589641869139,-0.4707445711237855,0.8623832731684787,-0.1849421919698199,-0.0212856256374104,0.4707418741332852,-0.8624067460938049,-84.18656217532,-28.694752424619,37.000182865646,37.185323691954,-122.00002426274,-8841596.052054305,-14157491.30536876,12578080.80480207,-8845188.451633617,-14155247.15659821,12578080.80480207,0.014539697980197,1.5868590503206,0,4.73992787,0.99957801,1.20669809,41976978.2,69.1438004,1.20669809,2.74995552,0,1,0.523,0,-3.12801123,-0.174,0.348,0,0.963064038,2.4076601,2.63960125,0,0,0.398835937,-1,132.75998,0,271.425967,-271.425967,360,30,0.5235,0.379390502,-2.74862073,0,0,0,-1.58685905,-7.16856855,-0.860114471,14.8842377,0,0,0,-0,0,0,0.002,0,0,0,0,0,0,0,0,0,0,-825,-1.5,1.29952,29.919,0,-0,-0,0,0,130,130,37.0001838598488746,-122.000025290489916,20900155.2802216783,14.2931981493711753
3.6,-276.99950712302,-92.30945152536823,48.59131876640865,486.6447241579319,-313.4699775623987,104.2999901669362,-276.9985533462821,-92.31265746477645,48.59382247683515,2.507470044,1431432.778,45.9359289899,1212.02096209,20.18279203013083,-5.851440702831756,40.84758401345345,78.09255849570177,-215.0014670379786,-105.3434834118138,-10.29823708559755,40.94341885218552,-22.44168138853175,27.36017885201058,1.085742595446864,-14.05629876673434,20.18279203013083,-5.851440702831756,40.84758401345345,1010.995737522017,-667.6489614759448,33.57522136721633,-21.39653094728643,-22.91293402710881,33.57522136721632,8.151806158700749,-6.003268018347068,-44.80645491017188, 2095.734879,-10.78165492, 13.55483334,-10.78165492, 1505.011878, 3.979907608, 13.55483334, 3.979907608, 3150.439301,77.08075536,2480,45.48951612903226,4.22741935483871,35.42701612903226,4.1166929490864,4.1166714596268,-177.2006563794297,18.34525406790004,272.8844197435671,-0.1272891016405257,0.7125162648963842,-0.6828929888812276,-0.098869725389104,0.1957228591415464,0.03063972708398909,-0.4465828776743853,0.8725351012433493,-0.1956083301824555,-0.03069834442649833,0.4465788521159376,-0.8725607839317069,63.706021751515,-7.3183721423383,37.000185588978,37.185326397825,-122.00002639464,-8841473.444997866,-14157569.54898692,12578083.11873252,-8845189.730811112,-14155248.03170039,12578083.11873252,0.015041066876066,4.1166714596268,3.2586611761214e-09,4.7657316,0.99948663,1.20669804,41976978.4,69.1437977,1.20669804,2.72415175,0,1,0.523,0,3.09273489,0.174,0.348,0,5.09407998,12.7352,5.61819899,0,0,0.225495703,-1,-259.668184,0,272.904521,-272.904521,360,30,0.5235,0.386418815,3.47915371,0,0,0,-4.11667146,-6.69719252,-0.8033874,-45.6098423,0,0,0,-0,0,0,0.002,0,0,0,0,0,0,0,0,0,0,-825,-1.5,1.29954,29.9211,0,-0,-0,-0,0,130,130,37.0001865598696611,-122.000027414118875,20900157.7851469442,-276.998553346282108
3.72,-168.0725083829231,-121.8844862025874,43.51820316815302,347.0553978084251,-79.90909848847765,68.13621111438322,-168.0716755278294,-121.8885669643004,43.51853489046044,2.339625051,1382628.398,44.3752105905,1209.52141836,27.04481504157438,-25.46311357121557,24.27688492327197,29.28042030437964,-75.37648575886793,-170.506602556884,1.997361709698133,36.8593518133769,-19.63978375645646,12.45158767183303,1.593321411025759,-14.28944199674796,27.04481504157438,-25.46311357121557,24.27688492327197,1009.688932671506,-665.1572841240398,32.18863307555414,-22.70868624500959,-20.42955664483287,32.18863307555414,7.899741832448013,-8.432027405289942,-42.84453649846724, 2095.734879,-10.78165492, 13.55483334,-10.78165492, 1505.011878, 3.979907608, 13.55483334, 3.979907608, 3150.439301,77.08075536,2480,45.48951612903226,4.22741935483871,35.42701612903226,9.2577901445329,9.2577418120865,148.3513514806226,28.77918734271602,262.4591197435352,-0.005733212419186895,0.6651730850760575,-0.6562096907391439,-0.3562312997839934,0.09632215760346596,0.04734140561394645,-0.676801890703302,0.7282994123363993,-0.09622337503669133,-0.04743320207848682,0.6767954634050453,-0.72831247013317,41.912861145695,-35.01661258501,37.000188334721,37.185329102974,-122.00002947858,-8841352.174520887,-14157649.40930174,12578087.01068529,-8845192.34769919,-14155250.52419811,12578087.01068529,0.015542435771934,9.2577418120865,-3.25866117463e-09,4.58377579,0.999300948,1.20669798,41976978.9,69.1437942,1.20669798,2.9061075,0,1,0.523,0,-2.58921953,-0.174,0.348,0,3.76417683,9.41044209,9.64395315,0,0,0.0705632813,-1,27.9586272,0,262.478453,-262.478453,360,30,0.5235,0.393104352,-2.19611518,0,0,0,-9.25774181,-6.70587761,-0.804084497,-43.648621,0,0,0,-0,0,0,0.002,0,0,0,0,0,0,0,0,0,0,-825,-1.5,1.29955,29.9239,0,0,-0,-0,0,130,130,37.0001894340062663,-122.000030446703235,20900163.1930478923,-168.07167552782937
3.84,-130.4133189293481,-117.4346628886753,50.23757296474982,277.7945058006794,104.7703250409317,42.62914370043531,-130.4129951098642,-117.4386777543552,50.23646287557842,1.880607883,1239544.502,39.7875219971,1208.1843907,25.9528946551907,-29.8128837104904,4.54820080358381,-34.86708889978901,-9.095266357426503,-137.0580967856109,12.73447722969341,24.33689102957424,-20.22099000859239,0.3842799840022212,1.497853785135294,-2.332394585985407,25.9528946551907,-29.8128837104904,4.54820080358381,1011.027980367787,-660.8059954402723,29.45133672250023,-21.37439980211063,-16.08728395428555,29.45133672250022,8.371981830957726,-9.601542883951982,-37.69306569036424, 2095.734879,-10.78165492, 13.55483334,-10.78165492, 1505.011878, 3.979907608, 13.55483334, 3.979907608, 3150.439301,77.08075536,2480,45.48951612903226,4.22741935483871,35.42701612903226,14.052724149078,14.05265078456,121.2659728226071,34.98829377761884,245.6551008493069,-0.03341410016043857,-0.5744740738521655,0.6185342666357903,0.5350499017657041,0.01948528374811592,-0.08942082629419516,0.7904751159856956,-0.6056181392177084,0.01957007530951106,-0.08953149873804953,0.7904625885527121,-0.6056154051744757,9.9400490146286,-48.529981335801,37.000191080565,37.185331811296,-122.0000332679,-8841230.931174807,-14157728.92522281,12578090.69434084,-8845194.992342653,-14155252.67333259,12578090.69434084,0.016043804667803,14.05265078456,3.2586611731367e-09,4.29049033,0.999127795,1.20669791,41976979.6,69.1437903,1.20669791,-3.08379242,0,1,-0.523,0,-2.1164905,-0.174,0.348,0,2.15165481,5.37913702,5.53288786,0,0,-0.0843691406,-1,26.9418871,0,245.673196,-245.673196,360,30,0.5235,0.399463832,-1.71702666,0,0,0,-14.0526508,-7.18553014,-0.861253853,-38.5543195,0,0,0,-0,0,0,0.002,0,0,0,0,0,0,0,0,0,0,-825,-1.5,1.29954,29.9255,0,0,-0,-0,0,130,130,37.0001919724468848,-122.000034151657346,20900168.1740045547,-130.412995109864227
3.96,-102.0009962729186,-104.0778964938197,54.44008660957621,202.9019753126897,101.9317671426377,28.29830098218017,-102.0014666095259,-104.0815142069781,54.43805013260987,1.54411132,1123142.803,36.0549048988,1208.36168524,20.13121086984502,-28.68484572133373,-8.477625971978636,-55.96850969722074,23.63652950322393,-81.25214047922859,12.7579813532612,13.04331095339738,-25.57290774086594,4.384044285460678,1.041183983530677,9.738452526069851,20.13121086984502,-28.68484572133373,-8.477625971978636,1012.660999822871,-658.7431820890614,26.7035923436675,-19.74670040922193,-14.033607738401,26.70359234366748,7.756839166340038,-9.309458083679738,-33.95764425868487, 2095.734879,-10.78165492, 13.55483334,-10.78165492, 1505.011878, 3.979907608, 13.55483334, 3.979907608, 3150.439301,77.08075536,2480,45.48951612903226,4.22741935483871,35.42701612903226,18.346379306167,18.346283523171,97.17630348916367,33.40190698423138,227.9697028406455,-0.06062595633643849,-0.4656774688535587,0.5790415869778506,0.6664681755122349,0.1328159195523728,-0.1170724183840148,0.8544027490394955,-0.4885180885094516,0.1328864523033443,-0.117195779144725,0.8543858367641577,-0.4884989069401299,-22.836861332314,-52.710818668386,37.000193807234,37.185334504857,-122.00003718844,-8841109.509731025,-14157808.08387491,12578094.07074567,-8845197.459500166,-14155254.46628714,12578094.07074567,0.016545173563672,18.346283523171,3.2586611716517e-09,3.98182191,0.998972764,1.20669784,41976980.3,69.1437862,1.20669784,-2.77512407,0,1,-0.523,0,-1.69604645,-0.174,0.348,0,1.64236712,4.1059178,4.21803907,0,0,-0.211689844,-1,21.3339189,0,227.986495,-227.986495,360,30,0.5235,0.405513156,-1.29053329,0,0,0,-18.3462835,-8.05021324,-0.964548666,-34.9221929,0,0,0,-0,0,0,0.002,0,0,0,0,0,0,0,0,0,0,-825,-1.5,1.29954,29.9257,0,0,-0,-0,0,130,130,37.000194369623145,-122.00003794034825,20900172.5865968987,-102.001466609525963
4.08,-79.94124620424464,-94.25432652244682,57.42121035236823,164.3049721905327,58.32937644104668,21.40250231153389,-79.94258542233113,-94.25739881486386,57.41871559432877,1.243071809,1007692.896,32.3517451468,1208.57710833,13.41818846526362,-24.83851764829389,-15.79986308127029,-54.02720620782859,37.7859444840512,-42.2912769303641,8.817121557766189,12.23611440014134,-29.07733203417965,11.09876277647177,0.8546688051322514,9.144425714070531,13.41818846526362,-24.83851764829389,-15.79986308127029,1013.949333319029,-657.2806970448956,23.39789603796006,-18.46381518999425,-12.58019887233025,23.39789603796005,6.279077282935059,-8.991698973097051,-30.43612905894838, 2095.734879,-10.78165492, 13.55483334,-10.78165492, 1505.011878, 3.979907608, 13.55483334, 3.979907608, 3150.439301,77.08075536,2480,45.48951612903226,4.22741935483871,35.42701612903226,22.209966152906,22.209850206559,79.41196646866102,26.29472569458362,214.5504781043093,-0.08371937516902293,-0.3518367797951493,0.5420739898561877,0.7585233919439015,0.2367706251090778,-0.1287880947864437,0.8842891008209138,-0.3812952712742109,0.2368273436480151,-0.1289196394524196,0.8842699326296469,-0.3812600452594561,-49.660094007702,-50.153554662196,37.000196164798,37.185336832453,-122.00004094511,-8840987.908263499,-14157887.04446673,12578097.08106097,-8845199.747283701,-14155256.06227569,12578097.08106097,0.017046542459541,22.209850206559,0,3.74761225,0.998833278,1.20669777,41976981,69.1437824,1.20669777,-2.54091448,0,1,-0.523,0,-1.38600028,-0.174,0.348,0,1.25037137,3.12592843,3.21580562,0,0,-0.362020312,-1,25.311931,0,214.566282,-214.566282,360,30,0.5235,0.41126745,-0.97473283,0,0,0,-22.2098502,-9.22021903,-1.10437848,-31.5405075,0,0,0,-0,0,0,0.002,0,0,0,0,0,0,0,0,0,0,-825,-1.5,1.29954,29.9249,0,0,0,-0,0,130,130,37.0001963655872643,-122.000041554817386,20900176.5094947703,-79.9425854223311347
4.2,-61.72815015719532,-88.99381137128545,59.70050143280324,138.6423864637596,30.69067866514437,16.24531453873227,-61.73032052186321,-88.99628493898122,59.69792708171659,0.9766294176,893163.8167,28.6771738844,1208.41206805,7.382353866248231,-19.94094938315444,-19.24161352615092,-46.06439829975714,42.21204945256366,-16.04822529877683,6.765082693285914,14.50493627362166,-30.07597787200419,13.678173113691,0.684186588721023,5.08711503200192,7.382353866248231,-19.94094938315444,-19.24161352615092,1014.858953091718,-655.6888989718426,19.82673219477829,-17.55956554167118,-10.99739289386751,19.82673219477828,4.534875523390505,-9.063611256336177,-26.82659421132621, 2095.734879,-10.78165492, 13.55483334,-10.78165492, 1505.011878, 3.979907608, 13.55483334, 3.979907608, 3150.439301,77.08075536,2480,45.48951612903226,4.22741935483871,35.42701612903226,25.647303339094,25.647169439551,67.47100196343904,16.40155283247946,205.4454527530898,-0.1040024847690617,-0.2367682504128461,0.5100600181202175,0.8203432553958763,0.3326829459150574,-0.1273847553843977,0.8898605504471901,-0.2850322479137395,0.332726590260695,-0.1275210221650937,0.8898410330235894,-0.2849812993636111,-69.009887493391,-44.055883007897,37.000197974727,37.185338615194,-122.00004465153,-8840866.177319562,-14157965.82543252,12578099.67570168,-8845201.906241052,-14155257.47972172,12578099.67570168,0.01754791135541,25.647169439551,-3.2586611693855e-09,3.58869958,0.998709194,1.20669771,41976981.8,69.1437789,1.20669771,-2.38200187,0,1,-0.523,0,-1.17759113,-0.174,0.348,0,0.927874154,2.31968538,2.39492181,0,0,-0.492408984,-1,29.8986838,0,205.460586,-205.460586,360,30,0.5235,0.416741104,-0.76085003,0,0,0,-25.6471694,-10.6260219,-1.27239734,-28.0989916,0,0,0,-0,0,0,0.002,0,0,0,0,0,0,0,0,0,0,-825,-1.5,1.29954,29.9233,0,-0,-0,0,0,130,130,37.0001978227695076,-122.000045130639393,20900179.9600812495,-61.7303205218632129
4.32,-46.17572979040057,-85.99537378553762,61.38181620509391,119.7940169949676,20.44373178465928,11.41997067418377,-46.17863095437905,-85.99724040457136,61.37945924000987,0.7456054399,780384.5696,25.0579196193,1207.99741384,2.442277650348656,-14.84264637340524,-20.04072015070611,-35.94742606669042,41.72698498379978,1.992306179979998,6.766860716002718,17.11477318156415,-29.50179708280469,12.95223676590162,0.5381806502891638,1.482811816651678,2.442277650348656,-14.84264637340524,-20.04072015070611,1015.654483271517,-653.7889245431998,16.24083101293115,-16.76926545059656,-9.106397745712218,16.24083101293115,2.900401506790468,-9.395474001979679,-23.04803842030384, 2095.734879,-10.78165492, 13.55483334,-10.78165492, 1505.011878, 3.979907608, 13.55483334, 3.979907608, 3150.439301,77.08075536,2480,45.48951612903226,4.22741935483871,35.42701612903226,28.641506601125,28.641357067843,59.73039272354664,5.209687217493355,199.2009098723661,-0.1221650044411759,-0.1218224436644174,0.4839066558480481,0.8579448422453952,0.4220805883216731,-0.1148732513550784,0.8768510220511451,-0.1994602672539212,0.4221120000094468,-0.1150113624569432,0.8768329175246686,-0.1993937829998722,-83.051867133018,-36.322779131967,37.000199218226,37.185339834398,-122.00004844768,-8840744.346544418,-14158044.39724868,12578101.83904412,-8845203.966003425,-14155258.6890957,12578101.83904412,0.018049280251279,28.641357067843,-3.2586611687133e-09,3.47971175,0.998601117,1.20669765,41976982.6,69.1437756,1.20669765,-2.2730141,0,1,-0.523,0,-1.04249202,-0.174,0.348,0,0.65307085,1.63267712,1.69742161,0,0,-0.595185938,-1,33.6912214,0,199.215583,-199.215583,360,30,0.5235,0.421947804,-0.620544212,0,0,0,-28.6413571,-12.2038775,-1.46096993,-24.5090083,0,0,0,-0,0,0,0.002,0,0,0,0,0,0,0,0,0,0,-825,-1.5,1.29954,29.9211,0,-0,-0,0,0,130,130,37.0001987426004177,-122.000048815285027,20900182.9323367365,-46.1786309543790523
4.44,-32.65756269703243,-83.71506294737357,62.5027873433384,104.7544137763638,18.05507095497239,6.974080430025195,-32.66105016010378,-83.71633268300364,62.50086857388632,0.5510226651,670854.9967,21.5422616127,1207.5071752,-1.189321406085877,-9.973694073886755,-19.0572814562361,-24.34656881019518,38.73639570108236,13.65965489498499,7.902375853340478,19.25988461140639,-28.16419054686653,10.70701540383915,0.4175072411348854,-0.7207582630288145,-1.189321406085877,-9.973694073886755,-19.0572814562361,1016.527064920318,-651.6004018002536,12.77579023762016,-15.90176945058403,-6.926900283204604,12.77579023762016,1.534813383549301,-9.814754326701355,-19.11501976909345, 2095.734879,-10.78165492, 13.55483334,-10.78165492, 1505.011878, 3.979907608, 13.55483334, 3.979907608, 3150.439301,77.08075536,2480,45.48951612903226,4.22741935483871,35.42701612903226,31.172648571432,31.172485829162,54.98029529005702,-6.557293323420068,194.6657763027758,-0.1392211673230439,-0.008499410009539432,0.4635469172678698,0.8750254179680459,0.504978889342669,-0.09241400536694393,0.8491662523135231,-0.1239864866107957,0.5049989542722142,-0.09255147139425364,0.8491512807497343,-0.1239047365027449,-93.571067426615,-27.579742679754,37.000199961803,37.185340556876,-122.0000524035,-8840622.417032667,-14158122.72318278,12578103.57842428,-8845205.927648053,-14155259.65366743,12578103.57842428,0.018550649147147,31.172485829162,-3.258661168315e-09,3.40055874,0.998509762,1.2066976,41976983.6,69.1437723,1.2066976,-2.19386114,0,1,-0.523,0,-0.959587177,-0.174,0.348,0,0.414464635,1.03616159,1.09265542,0,0,-0.7363125,-1,37.2277739,0,194.680116,-194.680116,360,30,0.5235,0.42690057,-0.532686606,0,0,0,-31.1724858,-13.8942643,-1.6629805,-20.7780003,0,0,0,-0,0,0,0.002,0,0,0,0,0,0,0,0,0,0,-825,-1.5,1.29954,29.9184,0,-0,-0,0,0,130,130,37.000199204332894,-122.000052679713278,20900185.4146351106,-32.6610501601037768
4.56,-20.79472230527202,-81.57125539898895,63.1216865559384,92.08290324428903,17.68961382738154,3.224150390436586,-20.79862186083743,-81.57194308599962,63.12035356815821,0.3936970782,567043.9795,18.2096124068,1207.05558786,-3.377047052914409,-5.5566220309759,-17.00910017650352,-12.02917216339882,34.39109835246352,19.72499802995988,9.486150803104181,20.79853628392802,-26.52240829673605,8.098443996780748,0.3101074681796643,-1.624610652507994,-3.377047052914409,-5.5566220309759,-17.00910017650352,1017.568188323796,-649.1903066246629,9.493159014364741,-14.86559971532637,-4.525909968031927,9.493159014364743,0.4820988025321746,-10.20836509746631,-15.07139166727763, 2095.734879,-10.78165492, 13.55483334,-10.78165492, 1505.011878, 3.979907608, 13.55483334, 3.979907608, 3150.439301,77.08075536,2480,45.48951612903226,4.22741935483871,35.42701612903226,33.224704012275,33.224530555203,52.49822021854541,-18.51612538011928,191.0652846322489,-0.1561666432661426,0.1015335966995497,0.4483915770816986,0.8742127326197129,0.5806234128093571,-0.06095677181120391,0.8098185402535232,-0.05791939510755129,0.5806330344758713,-0.06109141157836828,0.8098083943744673,-0.05782285972996661,-101.22967090944,-17.767052380449,37.000200303136,37.185340880623,-122.0000565296,-8840500.373226684,-14158200.7724743,12578104.91258382,-8845207.775600653,-14155260.34268415,12578104.91258382,0.019052018043016,33.224530555203,-3.2586611681365e-09,3.3377183,0.998435703,1.20669754,41976984.7,69.1437692,1.20669754,-2.13102076,0,1,-0.523,0,-0.916266794,-0.174,0.348,0,0.205190365,0.512975913,0.562672951,0,0,-0.826817578,-1,41.1538056,0,191.079359,-191.079359,360,30,0.5235,0.431611787,-0.484655008,0,0,0,-33.2245306,-15.6415904,-1.87179397,-16.9431856,0,0,0,-0,0,0,0.002,0,0,0,0,0,0,0,0,0,0,-825,-1.5,1.29953,29.9155,0,0,-0,0,0,130,130,37.0001993138789373,-122.000056733021964,20900187.3978196271,-20.7986218608374251
4.68,-10.37497033853585,-79.49469705277859,63.35004207667586,81.15932246525702,16.29101087252506,0.4528376799209461,-10.37909299035842,-79.49481656593817,63.34937442256705,0.2741229547,473153.4872,15.1950537165,1206.70426018,-4.092186471791699,-1.720734556005151,-14.53212785233414,0.07605126435565168,29.17918783980201,20.81838716937239,11.06388688407093,21.7601831523909,-24.94666137580964,5.848659746411596,0.1994657036367989,-1.634676995724437,-4.092186471791699,-1.720734556005151,-14.53212785233414,1018.803987618505,-646.6316776726954,6.40935140512031,-13.63463960421957,-1.976480426784056,6.409351405120308,-0.2737449043949889,-10.51544565857961,-10.96540577350003, 2095.734879,-10.78165492, 13.55483334,-10.78165492, 1505.011878, 3.979907608, 13.55483334, 3.979907608, 3150.439301,77.08075536,2480,45.48951612903226,4.22741935483871,35.42701612903226,34.787341233343,34.787159619378,51.93771593710724,-30.44895271123036,187.8042679871291,-0.1737561480350287,0.2067866343950233,0.4376016181371968,0.8576438145636655,0.6481512257343292,-0.02148591039518816,0.7612083156746032,-0.0004943494817156892,0.6481513006519571,-0.02161579923645933,0.7612046383339014,-0.0003837518724101057,-105.72699781615,-6.5022984657103,37.000200343761,37.185340907454,-122.00006080128,-8840378.192804845,-14158278.52294344,12578105.86481282,-8845209.487524787,-14155260.73397669,12578105.86481282,0.019553386938885,34.787159619378,-3.2586611681217e-09,3.28080283,0.998379311,1.20669749,41976985.9,69.143766,1.20669749,-2.07410534,0,1,-0.523,0,-0.906484149,-0.174,0.348,0,0.0213815628,0.0534539069,0.0971068696,0,0,-0.955672266,-1,46.1902423,0,187.818102,-187.818102,360,30,0.5235,0.436093234,-0.470390915,0,0,0,-34.7871596,-17.3943003,-2.08126502,-13.0466708,0,0,0,-0,0,0,0.002,0,0,0,0,0,0,0,0,0,0,-825,-1.5,1.29953,29.9125,0,0,-0,0,0,130,130,37.0001991773460688,-122.000060947909262,20900188.8774369061,-10.379092990358421
4.8,-1.112097834382634,-77.66320681195153,63.27110784540633,72.90102622442468,14.39851902147959,-1.944836888664121,-1.116252974599434,-77.66277000449089,63.27112552238491,0.1925024389,396499.9644,12.7336949713,1206.4712654,-3.421448811412154,1.442433867735377,-12.18031445365844,10.76403909964639,23.23455077279024,17.78073219669357,12.50648685831054,22.31307879317319,-23.47548543889803,4.075053942794262,0.1240717595813884,-1.104780495209494,-3.421448811412154,1.442433867735377,-12.18031445365844,1020.218617442591,-643.9834029691066,3.501937450150506,-12.22475016725842,0.6624991058505257,3.501937450150505,-0.7858514232831117,-10.7182404138052,-6.829988842911898, 2095.734879,-10.78165492, 13.55483334,-10.78165492, 1505.011878, 3.979907608, 13.55483334, 3.979907608, 3150.439301,77.08075536,2480,45.48951612903226,4.22741935483871,35.42701612903226,35.855182666332,35.854995475766,53.324285430337,-42.22527225401287,184.2507447979557,-0.1924400520356785,0.306155506046342,0.4302574589833633,0.8271119340688978,0.7068984938326756,0.02497691066927754,0.7051671490885347,0.04909139636292297,0.7068898914844182,0.02485349844871254,0.7051715095174313,0.04921511045313551,-105.6900459771,6.5042509447648,37.000200172601,37.185340726504,-122.00006517837,-8840255.853189729,-14158355.96051257,12578106.45771737,-8845211.040830284,-14155260.81347889,12578106.45771737,0.020054755834754,35.854995475766,-3.2586611682214e-09,3.21878215,0.998340776,1.20669743,41976987.1,69.1437629,1.20669743,-2.01208471,0,1,-0.523,0,-0.930684352,-0.174,0.348,0,-0.141760488,-0.354401221,-0.315350643,0,0,-0.905050781,-1,53.6381125,0,184.264317,-184.264317,360,30,0.5235,0.440356118,-0.490328234,0,0,0,-35.8549955,-19.1050171,-2.28575191,-9.11574075,0,0,0,-0,0,0,0.002,0,0,0,0,0,0,0,0,0,0,-825,-1.5,1.29953,29.9095,0,0,-0,0,0,130,130,37.0001988854059576,-122.000065280982028,20900189.8530947827,-1.11625297459943384
4.92,7.270676227744549,-76.03924706642077,62.91807162718669,66.54840834200054,12.30142632750878,-4.063317767765772,7.266671029568507,-76.03826584730399,62.91874386231667,0.1487672881,348559.1208,11.1942159443,1206.36394488,-1.599313086997104,3.84403050609138,-10.39115478309661,19.23685849912788,16.51548722910152,11.53196796424324,13.68102188527803,22.55628295135345,-22.24587728573441,2.888797234802754,0.06946403105060368,-0.3842692123669491,-1.599313086997104,3.84403050609138,-10.39115478309661,1021.793379937073,-641.2890709361699,0.7640129613933477,-10.65464196438136,3.347440725978507,0.7640129613933486,-1.088055124187233,-10.80951874874293,-2.698316340901835, 2095.734879,-10.78165492, 13.55483334,-10.78165492, 1505.011878, 3.979907608, 13.55483334, 3.979907608, 3150.439301,77.08075536,2480,45.48951612903226,4.22741935483871,35.42701612903226,36.426796738058,36.426606560369,57.28782459284271,-53.71962138756689,179.3915670657165,-0.2124211931509277,0.3987798198917595,0.4255368585127514,0.784072875436034,0.7563567319339937,0.07745309372603656,0.6430809066127473,0.09150114688090773,0.7563403057371608,0.07733773275029728,0.6430947902686281,0.09163682523860552,-98.749792072941,20.083811690151,37.000199864648,37.185340412915,-122.0000696157,-8840133.333867729,-14158433.07715125,12578106.71222966,-8845212.414992463,-14155260.57317184,12578106.71222966,0.020556124730623,36.426606560369,-6.5173223367887e-09,3.1339735,0.998320149,1.20669738,41976988.3,69.1437597,1.20669738,-1.92727612,0,1,-0.523,0,-0.99986116,-0.174,0.348,0,-0.28920017,-0.723000424,-0.687473928,0,0,-0.931128516,-1,66.4938633,0,179.404781,-179.404781,0,-30,-0.5235,0.437890004,-0.561971156,0,0,0,-36.4266066,-20.7305491,-2.48011441,-5.17843076,0,0,0,-0,0,0,0.002,0,0,0,0,0,0,0,0,0,0,-825,-1.5,1.29953,29.9067,0,0,-0,0,0,130,130,37.0001985130668487,-122.000069683831782,20900190.3276608512,7.26667102956850819
5.04,14.98250680154836,-74.60203786495484,62.31030833032536,61.55484789515123,12.64865292747393,-6.219009863365549,14.97881827755316,-74.60052722533726,62.31156095243003,0.1428183687,341518.6727,10.9681271712,1206.36669922,1.074792622294457,5.388184358605159,-9.492739529822858,24.81257448338928,8.962737744328766,3.127706981916618,14.60824634429235,22.63388970295888,-21.3034598896833,2.253809843081593,0.05090202277118707,0.3300758091440061,1.074792622294457,5.388184358605159,-9.492739529822858,1023.492922428463,-638.5761038954687,-1.846690303444637,-8.959676268248868,6.050929658792853,-1.846690303444639,-1.239407631478978,-10.80474109004584,1.421707545321498, 2095.734879,-10.78165492, 13.55483334,-10.78165492, 1505.011878, 3.979907608, 13.55483334, 3.979907608, 3150.439301,77.08075536,2480,45.48951612903226,4.22741935483871,35.42701612903226,36.503239899874,36.503049327605,65.95279100622405,-64.6680528963485,170.8670231328089,-0.2337602445542733,0.4838773445322133,0.422715222639173,0.7297470137407174,0.7960601652466217,0.1350097316257275,0.5760799652941018,0.1272495943436244,0.7960367682553616,0.1349038681446303,0.5761047651308924,0.1273958772435571,-83.540332241714,29.423324681238,37.000199478925,37.185340025807,-122.00007407038,-8840010.617800131,-14158509.86915228,12578106.64613811,-8845213.592962844,-14155260.0093593,12578106.64613811,0.021057493626492,36.503049327605,3.2586611686078e-09,2.98519214,0.99831739,1.20669732,41976989.6,69.1437566,1.20669732,-1.77849481,0,1,-0.523,0,-1.15109335,-0.174,0.348,0,-0.4246763,-1.06169075,-1.02886416,0,0,-0.901982813,-1,93.678989,0,170.879609,-170.879609,0,-30,-0.5235,0.391002394,-0.76009096,0,0,0,-36.5030493,-22.2318251,-2.65970367,-1.23799613,0,0,0,-0,0,0,0.002,0,0,0,0,0,0,0,0,0,0,-825,-1.5,1.29953,29.9041,0,0,-0,0,0,130,130,37.0001981181604194,-122.000074110476547,20900190.3060465828,14.9788182775531578
5.16,22.06385108512492,-72.71455003218975,61.45401787807657,55.70602228501085,20.81281059254399,-8.164277078660655,22.0606230353707,-72.71253139499908,61.45573866340055,0.1745079433,377512.8182,12.1239850683,1206.46798509,4.222328813145428,5.97362508719228,-9.668441272861442,27.12511129918894,0.5648630188571264,-6.120313743487285,15.40295565901354,22.62158568657538,-20.5937185871783,2.061540986010593,0.04633525686155696,0.9900713294460088,4.222328813145428,5.97362508719228,-9.668441272861442,1025.293866321538,-635.8604354579302,-4.358136546926321,-7.163237094326011,8.757036833554976,-4.358136546926319,-1.277841591687862,-10.71529707021178,5.526349925501008, 2095.734879,-10.78165492, 13.55483334,-10.78165492, 1505.011878, 3.979907608, 13.55483334, 3.979907608, 3150.439301,77.08075536,2480,45.48951612903226,4.22741935483871,35.42701612903226,36.086229503155,36.086041106566,86.42706264369011,-74.13894423256355,151.4340350735376,-0.256511773593465,0.5605212797647534,0.4210698496133457,0.6653704131424931,0.8254380111609702,0.1966718863095293,0.5053609847691843,0.1567881817586828,0.8254084989625409,0.1965768059486831,0.5053979769987629,0.1569434740566701,-66.408506512829,29.518947269004,37.000199058524,37.185339608336,-122.00007850537,-8839887.691540254,-14158586.3353278,12578106.27299949,-8845214.561285799,-14155259.12086366,12578106.27299949,0.021558862522361,36.086041106566,-6.5173223376759e-09,2.64602251,0.998332438,1.20669727,41976990.9,69.1437535,1.20669727,-1.43932524,0,1,-0.523,0,-1.50843681,-0.174,0.348,0,-0.549266915,-1.37316729,-1.34323317,0,0,-1.06458516,-1,165.764056,0,151.44519,-151.44519,0,-30,-0.5235,0.346401523,-1.16203528,0,0,0,-36.0860411,-23.573627,-2.8203284,2.70602152,0,0,0,-0,0,0,0.002,0,0,0,0,0,0,0,0,0,0,-825,-1.5,1.29952,29.9018,0,0,-0,0,0,130,130,37.0001977413921708,-122.000078521352506,20900189.7936544679,22.0606230353706962
5.28,28.33314522037135,-69.53738461732232,60.38606199677695,47.71311270851209,33.26302865824525,-9.663205503000933,28.33048888398722,-69.53488949425093,60.38810516620885,0.2437142759,446137.0128,14.3275686944,1206.66790066,7.457017214719421,5.505748789581954,-10.92514756044621,26.34450160200386,-8.547747766702056,-14.57825961289045,16.2813052671841,22.5940665247292,-20.04681021932009,2.307132429927655,0.05287186031181041,1.675879329923528,7.457017214719421,5.505748789581954,-10.92514756044621,1027.193082437939,-633.1473864226613,-6.795655594021271,-5.268455606903776,11.46043913895364,-6.795655594021274,-1.227268116661963,-10.5410212445015,9.626001702935744, 2095.734879,-10.78165492, 13.55483334,-10.78165492, 1505.011878, 3.979907608, 13.55483334, 3.979907608, 3150.439301,77.08075536,2480,45.48951612903226,4.22741935483871,35.42701612903226,35.177110560238,35.176926910449,133.8834265718467,-78.39679884967779,105.8394833734507,-0.2809208205026631,0.6274030537608146,0.4196156791327027,0.5927660437016579,0.8436937310633833,0.261174610071326,0.4327550244418687,0.1808087388340401,0.8436589076073353,0.2610912947678762,0.4328052956261343,0.1809711565117667,-55.684302525953,22.598835473807,37.000198636122,37.185339193228,-122.00008288637,-8839764.543374252,-14158662.4757644,12578105.60311947,-8845215.308238983,-14155257.90778149,12578105.60311947,0.022060231418229,35.176926910449,3.2586611690668e-09,1.85024746,0.998365245,1.20669722,41976992.1,69.1437505,1.20669722,-0.643550248,0,1,-0.523,0,-2.33670661,-0.174,0.348,0,-0.660046716,-1.65011679,-1.62408665,0,0,-1.15662422,-1,287.083056,0,105.84728,-105.84728,0,-30,-0.5235,0.303975866,-2.03273074,0,0,0,-35.1769269,-24.7242477,-2.95821245,6.66778926,0,0,0,-0,0,0,0.002,0,0,0,0,0,0,0,0,0,0,-825,-1.5,1.29952,29.9,0,0,-0,0,0,130,130,37.0001974111341738,-122.000082881036505,20900188.7955873124,28.3304888839872184
5.4,33.53872557585107,-64.91392500006243,59.16367580936202,38.1655990447397,44.25505639724775,-10.78457582249596,33.53671127805699,-64.9109986302829,59.16587473359098,0.350454186,534994.172,17.1806160855,1206.98453086,10.43716956079595,3.916213934851677,-13.07296175519171,23.04843939372341,-18.04264485482168,-20.70202909690278,17.40275008668024,22.55976442786863,-19.49729771909811,2.969277973265889,0.08912740296973037,2.475579553453424,10.43716956079595,3.916213934851677,-13.07296175519171,1029.211039819345,-630.4381162689284,-9.16923171983659,-3.254863322119962,14.15996551900102,-9.169231719836596,-1.089686056844541,-10.26393479928538,13.73454752842533, 2095.734879,-10.78165492, 13.55483334,-10.78165492, 1505.011878, 3.979907608, 13.55483334, 3.979907608, 3150.439301,77.08075536,2480,45.48951612903226,4.22741935483871,35.42701612903226,33.775612723082,33.775436387125,178.1170452756791,-73.61977456958638,64.20925213951011,-0.3072481835320122,0.6833358548640875,0.4171104733615533,0.5144604126514953,0.8502847654608507,0.3268860237937972,0.3605482923540737,0.2004152537957848,0.8502452898015425,0.3268150301489697,0.3606126450083046,0.2005826600160987,-51.396891475702,13.176041457968,37.000198240043,37.185338808861,-122.00008717529,-8839641.160471555,-14158738.2908554,12578104.64456712,-8845215.820983451,-14155256.37051699,12578104.64456712,0.022561600314098,33.775436387125,3.2586611692787e-09,1.12366286,0.998415822,1.20669716,41976993.3,69.1437475,1.20669716,0.0830343035,0,1,0.0830343035,0,-3.10872889,-0.174,0.348,0,-0.752555901,-1.88138975,-1.86024944,0,0,-1.24559531,-1,244.811773,0,64.2139819,-64.2139819,0,-30,-0.5235,0.263619334,-2.84510956,0,0,0,-33.7754364,-25.6550504,-3.0699409,10.6646066,0,0,0,-0,0,0,0.002,0,0,0,0,0,0,0,0,0,0,-825,-1.5,1.29952,29.8987,0,-0,0,-0,0,130,130,37.0001971488933705,-122.000087151606266,20900187.3149707131,33.5367112780569911
5.52,37.55867719311489,-59.1595896400532,57.82489789761565,27.91466264112918,51.51973816308347,-11.51121704163216,37.55733323528073,-59.15629313472623,57.82708493520651,0.494892728,635764.9911,20.4158091013,1207.45276504,12.91806090044467,1.187987005216552,-15.76444260692478,18.26685831283176,-27.42430305385046,-23.46038679619004,18.97840006281515,22.5058734839837,-18.81476333256114,4.173227897537773,0.1614595431801563,3.498570406796497,12.91806090044467,1.187987005216552,-15.76444260692478,1031.387870738093,-627.7337642427339,-11.47001003853273,-1.082328568341953,16.8544562607429,-11.47001003853273,-0.8457818116181066,-9.849389610516031,17.86279481734538, 2095.734879,-10.78165492, 13.55483334,-10.78165492, 1505.011878, 3.979907608, 13.55483334, 3.979907608, 3150.439301,77.08075536,2480,45.48951612903226,4.22741935483871,35.42701612903226,31.880036659539,31.879870227558,-161.8341192866874,-65.13727573194437,47.40436056788489,-0.3354949827843266,0.7278228534655501,0.4123333005235226,0.4332415720809665,0.8453760384859428,0.3920143202641669,0.2908553221721953,0.216950012274131,0.8453323574900975,0.3919557740923587,0.2909342140136292,0.2171201502674632,-50.66733789349,3.3359007417309,37.000197901519,37.185338486539,-122.00009132345,-8839517.52645183,-14158813.78110916,12578103.40539603,-8845216.083130557,-14155254.50959128,12578103.40539603,0.023062969209967,31.879870227558,3.2586611694564e-09,0.830362172,0.998484232,1.20669711,41976994.5,69.1437446,1.20669711,0.376334941,0,1,0.376334941,0,2.82453822,0.174,0.348,0,-0.47650057,-1.19125142,-1.17545326,0,0,-1.32229453,-1,-98.8631752,0,47.4078524,-47.4078524,0,-30,-0.5235,0.225231017,3.04976924,0,0,0,-31.8798702,-26.3400255,-3.15240585,14.710389,0,0,0,-0,0,0,0.002,0,0,0,0,0,0,0,0,0,0,-825,-1.5,1.29952,29.8979,0,-0,0,-0,0,130,130,37.0001969772174846,-122.000091285123005,20900185.3525745235,37.5573332352807299
5.64,40.35141925822839,-52.69511877589226,56.41615382103068,17.93841390217042,56.5077337943009,-11.99981725806436,40.35073807613982,-52.69152845779812,56.41817913838842,0.6772263668,743734.0331,23.8815650399,1208.12015415,14.77472959291796,-2.631263716537521,-18.57721630017761,12.75993390047974,-36.10030337984404,-22.72537690545776,20.7920064703389,22.30099442187012,-17.89349233686709,5.722764703263885,0.2681329023594321,4.621415978754706,14.77472959291796,-2.631263716537521,-18.57721630017761,1033.77399138458,-625.0429023400383,-13.67522732175222,1.299561114621895,19.53531282987712,-13.67522732175221,-0.4656812633103078,-9.250076962541158,22.01245933332903, 2095.734879,-10.78165492, 13.55483334,-10.78165492, 1505.011878, 3.979907608, 13.55483334, 3.979907608, 3150.439301,77.08075536,2480,45.48951612903226,4.22741935483871,35.42701612903226,29.487592250109,29.487438301313,-150.7701261809413,-56.18552681789505,40.10286456372251,-0.3653326475727842,0.7611600239880582,0.4042988725561399,0.3517241762372791,0.8298594832686792,0.4548473255531061,0.2252540753103107,0.2317493258292766,0.8298118093378171,0.4548009952192816,0.2253476042789616,0.2319199712762611,-51.504260849204,-6.3256746952129,37.000197660614,37.185338266424,-122.00009526395,-8839393.618930805,-14158888.94745916,12578101.89557015,-8845216.07228791,-14155252.32595362,12578101.89557015,0.023564338105836,29.487438301313,0,0.702927026,0.998570579,1.20669706,41976995.6,69.1437417,1.20669706,0.503770037,0,1,0.503770037,0,2.63143512,0.174,0.348,0,-0.526996025,-1.31749006,-1.30696402,0,0,-1.36524609,-1,-104.429393,0,40.1058186,-40.1058186,0,-30,-0.5235,0.188714923,2.82015004,0,0,0,-29.4874383,-26.7554164,-3.20276045,18.8096989,0,0,0,-0,0,0,0.002,0,0,0,0,0,0,0,0,0,0,-825,-1.5,1.29952,29.8978,0,-0,0,-0,0,130,130,37.0001969267884903,-122.000095215385755,20900182.9069858231,40.3507380761398196
5.76,42.00473067245105,-45.72241545272474,54.9526529171363,9.110890491591448,59.1275671233959,-12.3975327081655,42.00467827684277,-45.71861930087226,54.95439727640768,0.8970781173,856007.3993,27.4848023149,1209.01309362,15.96452003990479,-7.419956512059279,-21.10669807297333,7.428994429061401,-43.46717327440129,-18.72471725529867,22.87282397399316,21.91661807069861,-16.68597401539737,7.665607765951764,0.4326648518669086,5.863802170204793,15.96452003990479,-7.419956512059279,-21.10669807297333,1036.386784066615,-622.3880666861725,-15.75400885325067,3.908177993669419,22.17998440284677,-15.75400885325068,0.0692185333430082,-8.439314156910642,26.15697887074572, 2095.734879,-10.78165492, 13.55483334,-10.78165492, 1505.011878, 3.979907608, 13.55483334, 3.979907608, 3150.439301,77.08075536,2480,45.48951612903226,4.22741935483871,35.42701612903226,26.597285024822,26.5971461697,-142.8225323777147,-47.54631438951985,36.29957066607813,-0.3962307665614477,0.7842200336787458,0.3923080783091717,0.2722030310272081,0.8051221578976487,0.5138893024846237,0.1648216933995592,0.2460282606510934,0.8050704710314482,0.513854676468434,0.164929613152861,0.246197341273156,-52.897151387572,-15.662231475593,37.000197565071,37.185338196356,-122.00009891536,-8839269.411798058,-14158963.792859,12578100.12836574,-8845215.762337847,-14155249.82257576,12578100.12836574,0.024065707001705,26.5971461697,3.2586611696164e-09,0.636547025,0.998674903,1.20669702,41976996.6,69.1437391,1.20669702,0.570149992,0,1,0.523,0,2.49272344,0.174,0.348,0,-0.557412953,-1.39353238,-1.38778823,0,0,-1.26093516,-1,-103.307656,0,36.3022445,-36.3022445,0,-30,-0.5235,0.153979743,2.64670318,0,0,0,-26.5971462,-26.8795198,-3.21839316,22.9385857,0,0,0,-0,0,0,0.002,0,0,0,0,0,0,0,0,0,0,-825,-1.5,1.29951,29.8983,0,0,0,-0,0,130,130,37.0001970360770045,-122.000098861762794,20900179.9776288755,42.0046782768427676
5.88,42.65236862621613,-38.62974443289547,53.45873315719962,0.5392528852422602,58.69251806382628,-12.18606207288165,42.65289481016401,-38.62583643099033,53.46011408262009,1.153913555,970873.5908,31.1704162489,1210.18731564,16.56199564604514,-12.99561176447517,-22.98715346050874,2.91558830583336,-49.15670724949402,-12.07066240558928,25.35428160981444,21.2677374357501,-15.16947091055454,10.11271386683563,0.6044749142502892,7.32990135411082,16.56199564604514,-12.99561176447517,-22.98715346050874,1039.277530456912,-619.7930429838145,-17.66741362205778,6.7947921764783,24.76465514226189,-17.66741362205778,0.7941552993609569,-7.36100113797308,30.27837229338489, 2095.734879,-10.78165492, 13.55483334,-10.78165492, 1505.011878, 3.979907608, 13.55483334, 3.979907608, 3150.439301,77.08075536,2480,45.48951612903226,4.22741935483871,35.42701612903226,23.21077760309,23.210656422611,-136.16840742425,-39.44044801188944,34.03047108052011,-0.4275780545942654,0.7982411220378526,0.3759868403528329,0.1965248437186164,0.7728217644558077,0.5679809931667268,0.1101770601974005,0.2607779269627871,0.7727658389904998,0.56795735945453,0.1102988260764402,0.2609436048208613,-54.227657665966,-24.640370926733,37.000197671583,37.185338333117,-122.00010217964,-8839144.874920055,-14159038.32294821,12578098.12125922,-8845215.123140855,-14155247.00511799,12578098.12125922,0.024567075897574,23.210656422611,0,0.596943766,0.998797148,1.20669697,41976997.5,69.1437366,1.20669697,0.609753208,0,1,0.523,0,2.37658705,0.174,0.348,0,-0.57019618,-1.42549045,-1.42410906,0,0,-1.45881914,-1,-100.153953,0,34.0329778,-34.0329778,0,-30,-0.5235,0.120938619,2.49752567,0,0,0,-23.2106564,-26.6927419,-3.19693344,27.0814389,0,0,0,-0,0,0,0.002,0,0,0,0,0,0,0,0,0,0,-825,-1.5,1.29951,29.8995,0,0,0,-0,0,130,130,37.0001973532395141,-122.000102127154548,20900176.5657760836,42.652894810164014
6,42.24339453803674,-31.70172283525354,52.04658906381078,-7.757158054703978,56.28918119127612,-11.24636459930444,42.24444271368542,-31.69779717987087,52.04756213168123,1.446853437,1087186.289,34.9014595133,1211.6915028,16.6664779513031,-19.14206804642813,-23.95666128159246,-0.7742465365637266,-52.8916442038053,-3.726620436698269,28.03675999125852,20.25360090188462,-13.38917506145419,12.87333093588767,0.7662927001389577,8.983967156575485,16.6664779513031,-19.14206804642813,-23.95666128159246,1042.479676218266,-617.297892776239,-19.38386465565343,9.992829529032855,27.2492389833424,-19.38386465565342,1.724445379570154,-5.965548637040051,34.34458317913171, 2095.734879,-10.78165492, 13.55483334,-10.78165492, 1505.011878, 3.979907608, 13.55483334, 3.979907608, 3150.439301,77.08075536,2480,45.48951612903226,4.22741935483871,35.42701612903226,19.332624793053,19.332523864819,-130.1714104110046,-31.90872780050069,32.50714133811012,-0.4586211754182506,0.8047434189852927,0.3552293624937609,0.1259632767123812,0.7347610414368202,0.616265830208735,0.06137667372398072,0.2767228621317687,0.7347004870073955,0.616252388489494,0.06151148869337351,0.276883594369212,-55.173940356902,-33.261453180129,37.000198045709,37.185338742345,-122.00010493593,-8839019.972710386,-14159112.54718796,12578095.89604399,-8845214.11910641,-14155243.88306571,12578095.89604399,0.025068444793443,19.332523864819,-3.2586611693154e-09,0.570356647,0.998937156,1.20669694,41976998.2,69.1437344,1.20669694,0.636340289,0,1,0.523,0,2.2719197,0.174,0.348,0,-0.564531448,-1.41132862,-1.41449002,0,0,-1.41893555,-1,-96.4559951,0,32.5095359,-32.5095359,0,-30,-0.5235,0.0895089323,2.36142864,0,0,0,-19.3325239,-26.1776373,-3.13625565,31.2083275,0,0,0,-0,0,0,0.002,0,0,0,0,0,0,0,0,0,0,-825,-1.5,1.29951,29.9015,0,0,0,-0,0,130,130,37.0001979365581946,-122.000104891004867,20900172.6749707647,42.244442713685423
6.12,40.93891340150722,-25.14694991383077,50.75239276132137,-14.2037888308904,52.44302881818392,-10.24433114741804,40.94042779265925,-25.14309584995035,50.75294874198543,1.774512022,1204061.754,38.6494288356,1213.56118013,16.37044819832586,-25.61515392243766,-23.86735562720331,-3.805480715057243,-54.58451504799679,5.395208843634798,30.77244567963819,18.82987486736024,-11.36371968493306,15.81375650949952,0.9685189196307581,10.83727279490659,16.37044819832586,-25.61515392243766,-23.86735562720331,1046.008479021745,-614.9482883068569,-20.87109110287074,13.51752364039686,29.58804589908937,-20.87109110287074,2.867258935228732,-4.215825587396381,38.31166911183384, 2095.734879,-10.78165492, 13.55483334,-10.78165492, 1505.011878, 3.979907608, 13.55483334, 3.979907608, 3150.439301,77.08075536,2480,45.48951612903226,4.22741935483871,35.42701612903226,14.971987426281,14.971909260347,-124.6142523592823,-24.9136238629951,31.34938208908831,-0.4885177717101148,0.8053696639989434,0.3301117240188852,0.06128899329319117,0.6927412831199908,0.6581331081585494,0.01803587131062871,0.2943552852471017,0.6926755838131533,0.6581290672728466,0.018182725839085,0.2945098553202272,-55.554052998402,-41.510427132408,37.000198756543,37.18533949318,-122.00010704553,-8838894.666706905,-14159186.48025063,12578093.47831296,-8845212.711770913,-14155240.47111804,12578093.47831296,0.025569813689311,14.971909260347,0,0.550149936,0.999094601,1.2066969,41976998.6,69.1437325,1.2066969,0.656546967,0,1,0.523,0,2.174929,0.174,0.348,0,-0.542916904,-1.35729226,-1.36405338,0,0,-1.20417773,-1,-92.784886,0,31.3516913,-31.3516913,0,-30,-0.5235,0.0596120917,2.23454109,0,0,0,-14.9719093,-25.3190658,-3.03449712,35.277172,0,0,0,-0,0,0,0.002,0,0,0,0,0,0,0,0,0,0,-825,-1.5,1.29951,29.9043,0,0,0,-0,0,130,130,37.0001988492022562,-122.000107014264955,20900168.312960241,40.9404277926592499
6.24,-128.5573886546004,13.7475128927111,-78.33861036495058,118.7696321933965,117.0293429771659,10.45894268387697,-128.5562968887309,13.75131302348227,-78.33726004763135,1.046941862,924878.1923,29.6853988433,1213.58445793,15.38688474349877,-12.05018388182719,-22.34412116841078,46.36991798621992,52.76760006779854,-38.07058446263049,23.17928861791988,19.93890691344769,-15.08841534949678,8.648535472867939,0.06802158454175605,6.253025582770739,15.38688474349877,-12.05018388182719,-22.34412116841078,1042.82380319441,-620.5684672478636,-14.16084322365309,10.32511331899146,23.96008052217874,-14.16084322365309,4.306094552811524,-3.940764531264344,29.1058555808889, 2095.734879,-10.78165492, 13.55483334,-10.78165492, 1505.011878, 3.979907608, 13.55483334, 3.979907608, 3150.439301,77.08075536,2480,45.48951612903226,4.22741935483871,35.42701612903226,11.509700436145,11.509640350388,-138.6388548973814,-29.60365747406615,36.0728787186601,-0.3986639972587159,0.8321340270302148,0.3658482031754026,0.1215527481446209,0.7720408773223024,0.5812495620520083,0.023521980710179,0.2560245042593149,0.7719826081853879,0.581244195428919,0.02365422250614422,0.2562001477304495,-55.447444485752,-23.949397593716,37.00019998999,37.185340759613,-122.00010881818,-8838769.59571843,-14159260.97505177,12578091.75310327,-8845211.540323596,-14155237.62191038,12578091.75310327,0.02607118258518,11.509640350388,0,0.632590504,0.999219625,1.20669687,41976999,69.1437307,1.20669687,0.574106366,0,1,0.523,0,2.41970449,0.174,0.348,0,2.43824648,6.09561621,6.15214058,0,0,-1.00322578,-1,-177.107907,0,36.0755359,-36.0755359,0,-30,-0.5235,0.0311733393,2.45087783,0,0,0,-11.5096404,-24.1622444,-2.89668832,26.2091673,0,0,0,-0,0,0,0.002,0,0,0,0,0,0,0,0,0,0,-825,-1.5,1.29951,29.9063,0,0,0,-0,0,130,130,37.0001998307098248,-122.000108555259246,20900164.857361,-128.556296888730884
6.36,-113.7815941501821,26.42938739074823,-77.22706327143433,125.387532424501,91.7931300978894,8.849275265494526,-113.7811764691796,26.43284155946451,-77.22475014270596,1.329648167,1042333.392,33.4523250986,1214.8653231,20.98095264513956,-4.623162111761316,-25.64145184447463,46.62852433622537,69.19290027515873,-15.41708993844456,24.51247422687528,19.27165555490418,-14.22780322827451,9.422005657752518,-0.1834694370097013,7.971156101349508,20.98095264513956,-4.623162111761316,-25.64145184447463,1045.683791629004,-618.2149245074417,-15.92068819175516,13.18097844220292,26.30307110032619,-15.92068819175516,5.019648465439646,-2.760456750496301,32.95817140427809, 2095.734879,-10.78165492, 13.55483334,-10.78165492, 1505.011878, 3.979907608, 13.55483334, 3.979907608, 3150.439301,77.08075536,2480,45.48951612903226,4.22741935483871,35.42701612903226,7.7853528931737,7.7853122494499,-157.6499782697959,-36.54669605329443,44.06802338508285,-0.2859920168447314,0.8407292928888443,0.4058136859740691,0.2160973730887217,0.8571987338189968,0.4693331397342771,0.05393352779680356,0.2050070956471155,0.8571511718294195,0.469320620510063,0.05404235965881291,0.2052058653109356,-50.708474438641,-7.9437891900133,37.00020148859,37.18534229401,-122.00011020424,-8838644.286786115,-14159335.30125545,12578089.94723792,-8845210.131481713,-14155234.60532,12578089.94723792,0.026572551481049,7.7853122494499,3.2586611673572e-09,0.772132103,0.999354126,1.20669684,41976999.1,69.143729,1.20669684,0.434564738,0,1,0.434564738,0,2.75151119,0.174,0.348,0,2.18173969,5.45434922,5.51981813,0,0,-0.880507031,-1,-194.490647,0,44.0712695,-44.0712695,0,-30,-0.5235,0.00412156316,2.75563275,0,0,0,-7.78531225,-22.7816814,-2.73202814,30.2261433,0,0,0,-0,0,0,0.002,0,0,0,0,0,0,0,0,0,0,-825,-1.5,1.29951,29.9087,0,0,0,-0,0,130,130,37.0002009952253204,-122.000109706131525,20900161.1788285673,-113.781176469179556
6.48,-98.87409209981682,36.01567878735138,-76.09487767961591,121.4861571933528,68.09836054982941,10.38935124980356,-98.87436119175305,36.01854364627064,-76.09184840967794,1.647942406,1160449.304,37.2393739147,1216.32656623,26.3232763729842,4.323175322926657,-25.98396131613914,41.5321912130395,78.1088608549329,9.882927085559039,25.2285136510556,18.67809808643702,-13.39291444756241,9.350074850096689,-0.5404025411999579,9.669801305414401,26.3232763729842,4.323175322926657,-25.98396131613914,1048.693674896081,-615.9408836888713,-17.57042230097799,16.18676204810337,28.56641321768033,-17.57042230097799,5.828118286888525,-1.410803525201938,36.75341671473822, 2095.734879,-10.78165492, 13.55483334,-10.78165492, 1505.011878, 3.979907608, 13.55483334, 3.979907608, 3150.439301,77.08075536,2480,45.48951612903226,4.22741935483871,35.42701612903226,3.6019095405936,3.6018907371175,-177.2373429152229,-42.17998074552447,54.66786538318544,-0.1851593115195104,0.8246169935833686,0.4359997800116814,0.3092362124346253,0.9156557018347751,0.3581700586160413,0.0958870195135607,0.1552241099096818,0.9156190023279901,0.3581473939183451,0.09597163971564861,0.1554404425356655,-44.628329675836,6.6665859376341,37.00020323383,37.185344079574,-122.00011106719,-8838518.625013255,-14159409.34989029,12578087.93675735,-8845208.370292675,-14155231.31243609,12578087.93675735,0.027073920376918,3.6018907371175,0,0.957134246,0.999505224,1.20669682,41976999.1,69.1437276,1.20669682,0.24956257,0,1,0.24956257,0,3.09337519,0.174,0.348,0,1.9209862,4.80246549,4.86685574,0,0,-0.774662109,-1,-213.958443,0,54.6718923,-54.6718923,0,-30,-0.5235,-0.0216108804,3.07176431,0,0,0,-3.60189074,-21.1558196,-2.53793634,34.2154804,0,0,0,-0,0,0,0.002,0,0,0,0,0,0,0,0,0,0,-825,-1.5,1.29951,29.9119,0,0,0,-0,0,130,130,37.0002024637826636,-122.000110406367426,20900157.0711242706,-98.8743611917530529
6.6,157.8272457489356,214.0311355672605,144.189728011939,-7124.314439713045,1025.557507058572,-3883.434830600282,157.8263083287397,214.0338866950943,144.1927294853227,0.04764916639,197330.1708,6.33201865871,1217.7697583,-2.010408565837101,3.181986218498429,5.091923153187435,-140.7579957678282,-7.090977819478935,136.1484452057071,-41.74021319467765,-155.726605034991,121.3729768865051,-155.1931042900796,-26.76285714822849,172.0611730036904,-2.010408565837101,3.181986218498429,5.091923153187435,1032.428670967785,-645.7675515059055,6.204274850015557,-0.09783093502974927,-1.261690527778909,6.204274850015558,4.264829599106388,0.5856309569237985,-4.643568150372078, 2095.734879,-10.78165492, 13.55483334,-10.78165492, 1505.011878, 3.979907608, 13.55483334, 3.979907608, 3150.439301,77.08075536,2480,45.48951612903226,4.22741935483871,35.42701612903226,0.95426474884152,0.95425976418614,178.29018373694,-52.33190631056176,58.54467893216354,-0.2039132042419912,0.7860420298712187,0.4330647254261479,0.3911678361052621,0.9119898981117414,0.3278254197941141,0.1825844594779076,0.1657342301279634,0.9119499894554315,0.3277814732158623,0.1826633420324555,0.1659536863893406,111.54524863966,30.167073812786,37.00020506527,37.185345937866,-122.00011128798,-8838393.443331858,-14159484.52082294,12578086.87559823,-8845207.09035486,-14155229.14273351,12578086.87559823,0.027575289272787,0.95425976418614,3.2586611653482e-09,1.02479741,0.999600861,1.2066968,41976999,69.1437266,1.2066968,0.181899392,0,1,0.181899392,0,-3.11175073,-0.174,0.348,0,-3.00987784,-7.52469459,0.985630939,0,0,-0.697962891,-1,271.23201,0,58.5489914,-58.5489914,0,-30,-0.5235,-0.0460883362,-3.15783907,0,0,0,-0.954259764,-19.3043332,-2.31633577,-6.95990392,0,0,0,-0,0,0,0.002,0,0,0,0,0,0,0,0,0,0,-825,-1.5,1.29954,29.9142,0,0,-0,0,0,130,130,37.0002041534709747,-122.00011078160729,20900154.4447018243,157.826308328739685
6.72,-41.44181829914796,259.9224025326887,-31.18765420018069,115.0648559933207,-158.9137837755255,-35.03905119117784,-41.44433613125128,259.9247792459096,-31.18531581201368,0.2626225313,463260.7664,14.8658744482,1219.53315322,-13.25527066535137,1.315125283747365,6.600186981075596,5.503058823654317,-8.783447685301539,-54.31312835274589,23.12153478949635,22.6992210558216,-17.24331692413368,4.416333131652377,-0.08413809398659444,8.749846275677889,-13.25527066535137,1.315125283747365,6.600186981075596,1030.317221026563,-652.344255465162,12.43013387536598,-2.218221246298586,-7.846367914633149,12.43013387536598,5.170738344711538,2.276798325295145,-13.75041371978672, 2095.734879,-10.78165492, 13.55483334,-10.78165492, 1505.011878, 3.979907608, 13.55483334, 3.979907608, 3150.439301,77.08075536,2480,45.48951612903226,4.22741935483871,35.42701612903226,2.5180790275335,2.5180658807432,139.7155432140987,-80.89571145741179,92.65920574862939,-0.2596127595306686,0.6549279428021932,0.3625224502600334,0.6101213632411342,0.8518099211037551,0.2206731319544426,0.4140808298191885,0.2329383899637069,0.8517528221217122,0.2205716692906715,0.4141348856310673,0.2331470892320306,153.52994360802,5.0753665625098,37.000206678591,37.185347540265,-122.0001106304,-8838269.850343876,-14159562.72014377,12578088.28558234,-8845207.401233602,-14155230.00174653,12578088.28558234,0.028076658168656,2.5180658807432,3.2586611644648e-09,1.62020822,0.999544373,1.2066968,41976998.6,69.1437264,1.2066968,-0.413511427,0,1,-0.413511427,0,-2.43849625,-0.174,0.348,0,0.569401566,1.42350391,1.58575988,0,0,-0.607457812,-1,-245.312071,0,92.6660312,-92.6660312,0,-30,-0.5235,-0.0693720106,-2.50786826,0,0,0,-2.51806588,-17.6263041,-2.11471265,-15.8651264,0,0,0,-0,0,0,0.002,0,0,0,0,0,0,0,0,0,0,-825,-1.5,1.29953,29.9153,0,-0,-0,0,0,130,130,37.0002054782628562,-122.000110459119597,20900156.1149255075,-41.4443361312512764
6.84,-27.68290873010803,244.5930626372507,-34.78151571601789,114.454308939928,-95.54552576654162,-24.11850515977897,-27.68645201198888,244.5951001389948,-34.78064966543628,0.1558986153,356923.4108,11.4539282168,1220.21529261,-11.32605979850572,0.6699274280741712,1.569725542107893,22.82733277992967,-2.574332829310074,-28.7071587404718,19.90613496029383,23.3740033673243,-18.91488972598355,0.926521815141235,-0.06904607804766909,6.443765031001514,-11.32605979850572,0.6699274280741712,1.569725542107893,1032.897010750007,-649.5720997631985,10.25732457848237,0.3571813989849262,-5.084504453301228,10.25732457848238,5.680157967572556,2.997291745429527,-9.483908437556828, 2095.734879,-10.78165492, 13.55483334,-10.78165492, 1505.011878, 3.979907608, 13.55483334, 3.979907608, 3150.439301,77.08075536,2480,45.48951612903226,4.22741935483871,35.42701612903226,3.912271220237,3.9122507954116,21.71641563553633,-64.46171713271821,208.1903845556991,-0.2997620552550949,0.4692061994182993,0.2821122500256092,0.7812815952281001,0.7293296873601519,0.1064793733896829,0.6204996569962316,0.2678068816241339,0.7292628762329303,0.1063246234639314,0.6205261926261886,0.2679887610676494,172.10940610271,3.3530795898298,37.000208482396,37.185349335002,-122.00010953142,-8838146.053614527,-14159640.83593087,12578089.64884177,-8845207.509021675,-14155230.7784059,12578089.64884177,0.028578027064525,3.9122507954116,-3.2586611634752e-09,3.63660768,0.999494014,1.2066968,41976998,69.1437264,1.2066968,-2.42991089,0,1,-0.523,0,-0.379022955,-0.174,0.348,0,0.329133851,0.822834627,0.882775179,0,0,-0.523088672,-1,-40.3433898,0,208.20572,-208.20572,360,30,0.5235,-0.0593094781,-0.438332433,0,0,0,-3.9122508,-16.260025,-1.95056686,-11.4344753,0,0,0,-0,0,0,0.002,0,0,0,0,0,0,0,0,0,0,-825,-1.5,1.29953,29.9159,0,-0,-0,0,0,130,130,37.0002071270653659,-122.000109535062066,20900157.681296885,-27.6864520119888802
6.96,-13.63528758718199,236.9234370888539,-37.09867922475585,121.8037382666653,-27.49420081955505,-13.46182332029869,-13.63896940885873,236.925193176967,-37.09958291006271,0.08799230427,268146.8326,8.60520680506,1220.4133944,-8.555217928921715,0.579573166696568,-0.722443970818393,21.50084542875913,0.6874655123478721,-11.64918034012778,11.97625164927242,21.02506951378163,-19.20248052362351,0.1586553080931931,-0.05747026295237791,-1.81534589703242,-8.555217928921715,0.579573166696568,-0.722443970818393,1034.8442508962,-646.8718598323414,7.938928156925871,2.300070684388552,-2.39430130181147,7.938928156925868,5.834278421496023,3.219358482124703,-5.444860918509092, 2095.734879,-10.78165492, 13.55483334,-10.78165492, 1505.011878, 3.979907608, 13.55483334, 3.979907608, 3150.439301,77.08075536,2480,45.48951612903226,4.22741935483871,35.42701612903226,4.7996153980494,4.799590339503,13.52843229441088,-35.63277626916877,215.2009326686678,-0.3202233887455213,0.2557075213448093,0.1987596419929339,0.8902613377783343,0.5638701949285718,-0.003270790115137155,0.7798304027834464,0.2718533577093445,0.5638011897425685,-0.003468684139318918,0.7798295476600711,0.271996439814007,-175.17311897073,3.8618773821537,37.00021040234,37.185351250589,-122.00010821974,-8838021.975743596,-14159718.61833606,12578090.74082288,-8845207.336189898,-14155231.22290809,12578090.74082288,0.029079395960393,4.799590339503,6.5173223248382e-09,3.75896483,0.999461963,1.2066968,41976997.4,69.1437265,1.2066968,-2.55226803,0,1,-0.523,0,-0.236115686,-0.174,0.348,0,0.0852675558,0.21316889,0.276871853,0,0,-0.400369922,-1,1.13488095,0,215.216785,-215.216785,360,30,0.5235,-0.0308854843,-0.267001171,0,0,0,-4.79959034,-15.1317377,-1.81508226,-7.25994318,0,0,0,-0,0,0,0.002,0,0,0,0,0,0,0,0,0,0,-825,-1.5,1.29953,29.9161,0,-0,-0,0,0,130,130,37.0002090860130082,-122.000108196324305,20900158.7538958415,-13.6389694088587294
7.08,0.8536722950104748,233.853476391991,-38.11052912857893,119.197394728591,-23.70883062826391,-2.553151443234521,0.85072551882978,233.8549872216624,-38.11307671710523,0.05508556134,212161.9406,6.80864344636,1220.33168561,-6.67713993167509,0.7651843586391154,-1.089917799542391,8.068493504756159,2.106181837884207,2.907893649863674,12.88043942489235,21.22327511602495,-18.93612650730218,0.1707147087219564,-0.05087149683640028,-1.039493333154296,-6.67713993167509,0.7651843586391154,-1.089917799542391,1036.344636049941,-644.3347643679706,5.650632677269268,3.796090471237439,0.1329400631576945,5.650632677269267,5.785728927548591,3.148815832566055,-1.722766730913991, 2095.734879,-10.78165492, 13.55483334,-10.78165492, 1505.011878, 3.979907608, 13.55483334, 3.979907608, 3150.439301,77.08075536,2480,45.48951612903226,4.22741935483871,35.42701612903226,5.2300971597433,5.2300698533367,11.96624261293029,-7.072186250585774,217.0646630866539,-0.321602111754806,0.02509332683367098,0.1181388453120019,0.9391408945901645,0.3669257058717514,-0.1045004626488809,0.8910418562798115,0.2459463153497416,0.3668622048510322,-0.1047304734854204,0.8910148507516146,0.2460410256754692,-170.72929966186,6.4527760689135,37.000212315506,37.18535316344,-122.00010691084,-8837897.705473997,-14159796.09097149,12578091.55588604,-8845206.971484631,-14155231.3588268,12578091.55588604,0.029580764856262,5.2300698533367,0,3.79149306,0.999446415,1.2066968,41976996.8,69.1437267,1.2066968,-2.58479626,0,1,-0.523,0,-0.208850333,-0.174,0.348,0,-0.168044685,-0.420111713,-0.357314818,0,0,-0.366622266,-1,9.73574127,0,217.080652,-217.080652,360,30,0.5235,-0.00384774708,-0.21269808,0,0,0,-5.23006985,-14.1728382,-1.69999934,-3.42276607,0,0,0,-0,0,0,0.002,0,0,0,0,0,0,0,0,0,0,-825,-1.5,1.29953,29.9162,0,-0,-0,0,0,130,130,37.0002112265188288,-122.000106689104257,20900159.3442490958,0.850725518829779981
7.2,23.72446230697986,-2.032332700138549,-11.90801393828949,166.8707983105044,-2917.177932600685,518.7307046592254,23.72288700552603,-2.031052505978402,-11.91166576409261,0.1337714013,330620.614,10.6102059129,1220.63371845,-3.916816899292823,-1.007164079730718,-9.80921176278251,43.89245392885753,-27.34121420621019,-59.28841146051163,-42.65763131406392,-57.97929676690863,28.82162436201647,55.13003825948699,-29.25450038984063,-89.24346319480583,-3.916816899292823,-1.007164079730718,-9.80921176278251,1034.168357362844,-648.3421772812542,9.741888994319186,1.612073021712153,-3.882433374602453,9.741888994319186,6.287564865312673,3.424496187609931,-7.830442097271845, 2095.734879,-10.78165492, 13.55483334,-10.78165492, 1505.011878, 3.979907608, 13.55483334, 3.979907608, 3150.439301,77.08075536,2480,45.48951612903226,4.22741935483871,35.42701612903226,5.3043814115226,5.3043537164307,13.00296144179641,20.19664427190136,218.4324561083815,-0.3032042245236364,-0.2011939975797927,0.04792521740326551,0.9302103778746679,0.1596665520542793,-0.1911387174636199,0.9489407832654334,0.1936077805694964,0.1596157213859458,-0.1913878231461342,0.9488905735697009,0.1936496889447341,-111.76681926424,-5.4469504132099,37.000214258649,37.185355109484,-122.00010559004,-8837773.277466148,-14159873.31741984,12578092.16529511,-8845206.449591566,-14155231.24973156,12578092.16529511,0.030082133752131,5.3043537164307,-3.2586611602915e-09,3.81536555,0.999443732,1.2066968,41976996.2,69.1437268,1.2066968,-2.60866875,0,1,-0.523,0,-0.22694449,-0.174,0.348,0,-0.460040706,-1.15010177,-0.975833564,0,0,-0.339010547,-1,17.4641784,0,218.448546,-218.448546,360,30,0.5235,0.0218713423,-0.205073147,0,0,0,-5.30435372,-13.3250173,-1.59829526,-9.42873736,0,0,0,-0,0,0,0.002,0,0,0,0,0,0,0,0,0,0,-825,-1.5,1.29953,29.9162,0,-0,-0,0,0,130,130,37.0002135338526017,-122.00010506199331,20900159.5160605982,23.7228870055260259
7.32,24.81722779765635,-35.26345252259129,-5.954346475166489,-7.284553626435804,20.4345065231599,-2.220443594462752,24.81538564761619,-35.26238618748771,-5.957941710364761,0.06644799484,233016.5266,7.47802754579,1220.40956504,-5.494255317018689,-0.4090004845088344,-5.056359667854827,-10.73422577947491,5.43385915842681,31.65600386982037,11.84421343414776,20.72159603160838,-18.70679562035646,1.490202603528337,-0.01074499018919913,-1.608540939450525,-5.494255317018689,-0.4090004845088344,-5.056359667854827,1035.838304371948,-645.286011790387,6.669080645760674,3.277953927744477,-0.8362280571414313,6.669080645760673,5.934407818304542,3.222994074347313,-3.211854451620371, 2095.734879,-10.78165492, 13.55483334,-10.78165492, 1505.011878, 3.979907608, 13.55483334, 3.979907608, 3150.439301,77.08075536,2480,45.48951612903226,4.22741935483871,35.42701612903226,5.9254515618086,5.925420625158,15.44233477697904,16.54479836585941,216.6115526100576,-0.2896498457764219,-0.1771192595451395,0.08144493173259131,0.9370690784755145,0.198671172077048,-0.1865051600937498,0.9462907129244176,0.1740099918882076,0.1986247232299088,-0.1867577103099708,0.9462409025974172,0.1740630093191665,-137.37665586293,-3.1352787321328,37.000216222338,37.185357071259,-122.00010424334,-8837649.07119235,-14159950.91337754,12578093.10974049,-8845206.15030515,-14155231.51112027,12578093.10974049,0.030583502648,5.925420625158,-6.5173223184199e-09,3.78358479,0.9994213,1.20669681,41976995.6,69.1437269,1.20669681,-2.57688799,0,1,-0.523,0,-0.269519586,-0.174,0.348,0,-0.608440393,-1.52110098,-1.52511408,0,0,-0.273049219,-1,20.7244382,0,216.627509,-216.627509,360,30,0.5235,0.0463360952,-0.223183491,0,0,0,-5.92542063,-12.5961379,-1.51079017,-4.72264462,0,0,0,-0,0,0,0.002,0,0,0,0,0,0,0,0,0,0,-825,-1.5,1.29953,29.9162,0,-0,-0,0,0,130,130,37.0002154876756819,-122.000103769547593,20900160.1382365264,24.8153856476161927
